1594860808.5924, 52, 0, 8257, 8173, 8180, 4341, 7246, 6720, 8391, 7980, 8335
Timestamp, COUNTER_MEMS, INTERPOLATED_MEMS, GYROX, GYROY, GYROZ, ACCX, ACCY, ACCZ, MAGX, MAGY, MAGZ
1594860808.6081, 53, 0, 8243, 8167, 8168, 4306, 7274, 6737, 8389, 7956, 8338
1594860808.6237, 54, 0, 8234, 8165, 8170, 4290, 7251, 6721, 8387, 7958, 8334
1594860808.6395, 55, 0, 8225, 8183, 8154, 4338, 7249, 6756, 8388, 7956, 8336
1594860808.6551, 56, 0, 8223, 8194, 8151, 4355, 7290, 6745, 8390, 7952, 8338
1594860808.6708, 57, 0, 8222, 8216, 8157, 4398, 7276, 6763, 8385, 7950, 8337
1594860808.6865, 58, 0, 8221, 8226, 8164, 4369, 7252, 6842, 8390, 7955, 8339
1594860808.7021, 59, 0, 8234, 8215, 8184, 4374, 7218, 6868, 8387, 7956, 8337
1594860808.718, 60, 0, 8246, 8215, 8190, 4362, 7288, 6802, 8388, 7952, 8337
1594860808.7336, 61, 0, 8254, 8215, 8205, 4436, 7260, 6725, 8385, 7958, 8336
1594860808.7495, 62, 0, 8257, 8213, 8208, 4287, 7286, 6715, 8385, 7953, 8339
1594860808.7654, 63, 0, 8264, 8252, 8212, 4335, 7216, 6732, 8386, 7958, 8341
1594860808.7812, 0, 0, 8256, 8254, 8215, 4384, 7287, 6675, 8385, 7965, 8339
1594860808.7971, 1, 0, 8245, 8215, 8209, 4220, 7279, 6688, 8382, 7956, 8342
1594860808.813, 2, 0, 8236, 8205, 8199, 4262, 7254, 6643, 8383, 7956, 8341
1594860808.8288, 3, 0, 8226, 8214, 8189, 4329, 7241, 6685, 8389, 7957, 8340
1594860808.8447, 4, 0, 8198, 8212, 8178, 4309, 7302, 6651, 8385, 7957, 8339
1594860808.8605, 5, 0, 8194, 8225, 8168, 4339, 7272, 6693, 8385, 7955, 8342
1594860808.8764, 6, 0, 8187, 8235, 8171, 4340, 7282, 6714, 8381, 7955, 8341
1594860808.8921, 7, 0, 8195, 8235, 8169, 4374, 7278, 6728, 8382, 7955, 8339
1594860808.9079, 8, 0, 8209, 8232, 8171, 4393, 7273, 6749, 8387, 7959, 8341
1594860808.9236, 9, 0, 8220, 8232, 8171, 4379, 7240, 6765, 8384, 7960, 8341
1594860808.9392, 10, 0, 8235, 8232, 8174, 4356, 7311, 6684, 8382, 7954, 8342
1594860808.9548, 11, 0, 8241, 8232, 8172, 4345, 7264, 6704, 8386, 7954, 8341
1594860808.9705, 12, 0, 8255, 8253, 8164, 4347, 7316, 6695, 8382, 7961, 8343
1594860808.9861, 13, 0, 8254, 8257, 8166, 4390, 7262, 6628, 8384, 7961, 8344
1594860809.0018, 14, 0, 8262, 8250, 8153, 4419, 7287, 6641, 8386, 7955, 8343
1594860809.0174, 15, 0, 8261, 8247, 8158, 4436, 7251, 6663, 8383, 7956, 8346
1594860809.0332, 16, 0, 8245, 8224, 8167, 4389, 7293, 6670, 8384, 7957, 8345
1594860809.0489, 17, 0, 8248, 8207, 8169, 4374, 7266, 6676, 8381, 7969, 8347
1594860809.0647, 18, 0, 8253, 8131, 8168, 4420, 7219, 6644, 8381, 7955, 8348
1594860809.0806, 19, 0, 8257, 8164, 8172, 4372, 7196, 6610, 8378, 7957, 8347
1594860809.0965, 20, 0, 8246, 8147, 8170, 4338, 7261, 6545, 8378, 7962, 8347
1594860809.1123, 21, 0, 8226, 8153, 8159, 4338, 7230, 6537, 8381, 7963, 8347
1594860809.1282, 22, 0, 8216, 8183, 8158, 4351, 7202, 6546, 8382, 7954, 8345
1594860809.144, 23, 0, 8209, 8232, 8166, 4375, 7199, 6574, 8381, 7960, 8346
1594860809.1598, 24, 0, 8209, 8222, 8173, 4376, 7184, 6558, 8381, 7957, 8347
1594860809.1757, 25, 0, 8204, 8185, 8171, 4407, 7235, 6640, 8388, 7957, 8345
1594860809.1913, 26, 0, 8210, 8185, 8179, 4399, 7216, 6687, 8382, 7959, 8350
1594860809.2071, 27, 0, 8227, 8186, 8193, 4370, 7273, 6598, 8381, 7959, 8347
1594860809.2227, 28, 0, 8229, 8181, 8192, 4372, 7238, 6613, 8376, 7959, 8351
1594860809.2384, 29, 0, 8227, 8164, 8189, 4335, 7269, 6549, 8378, 7976, 8347
1594860809.2542, 30, 0, 8219, 8151, 8183, 4338, 7214, 6555, 8384, 7956, 8347
1594860809.2698, 31, 0, 8217, 8158, 8166, 4341, 7229, 6624, 8382, 7955, 8349
1594860809.2855, 32, 0, 8219, 8175, 8164, 4392, 7249, 6638, 8379, 7958, 8347
1594860809.3012, 33, 0, 8220, 8186, 8160, 4425, 7281, 6611, 8379, 7957, 8349
1594860809.3168, 34, 0, 8222, 8181, 8165, 4418, 7204, 6655, 8379, 7958, 8348
1594860809.3325, 35, 0, 8226, 8173, 8166, 4375, 7201, 6649, 8376, 7958, 8347
1594860809.3482, 36, 0, 8220, 8163, 8173, 4385, 7250, 6539, 8378, 7960, 8347
1594860809.3641, 37, 0, 8219, 8167, 8172, 4406, 7206, 6569, 8379, 7964, 8347
1594860809.38, 38, 0, 8206, 8173, 8177, 4400, 7263, 6509, 8377, 7961, 8348
1594860809.3958, 39, 0, 8199, 8179, 8171, 4388, 7229, 6554, 8379, 7961, 8347
1594860809.4117, 40, 0, 8177, 8180, 8178, 4400, 7190, 6560, 8379, 7958, 8348
1594860809.4275, 41, 0, 8169, 8168, 8180, 4398, 7219, 6541, 8378, 7959, 8349
1594860809.4434, 42, 0, 8157, 8145, 8180, 4386, 7191, 6544, 8377, 7962, 8345
1594860809.4593, 43, 0, 8149, 8150, 8179, 4401, 7183, 6557, 8380, 7950, 8346
1594860809.4749, 44, 0, 8130, 8162, 8187, 4434, 7214, 6529, 8380, 7962, 8348
1594860809.4908, 45, 0, 8119, 8157, 8193, 4441, 7208, 6535, 8380, 7961, 8346
1594860809.5065, 46, 0, 8095, 8159, 8206, 4413, 7174, 6599, 8379, 7958, 8345
1594860809.5221, 47, 0, 8086, 8166, 8213, 4413, 7189, 6615, 8379, 7957, 8346
1594860809.5378, 48, 0, 8083, 8171, 8218, 4380, 7214, 6633, 8378, 7957, 8346
1594860809.5534, 49, 0, 8081, 8170, 8218, 4411, 7152, 6712, 8378, 7960, 8344
1594860809.5691, 50, 0, 8090, 8178, 8216, 4400, 7193, 6684, 8377, 7960, 8345
1594860809.5851, 51, 0, 8105, 8190, 8220, 4385, 7241, 6622, 8379, 7953, 8346
1594860809.6007, 52, 0, 8107, 8193, 8220, 4358, 7266, 6599, 8381, 7957, 8344
1594860809.6164, 53, 0, 8113, 8186, 8217, 4392, 7225, 6653, 8375, 7957, 8345
1594860809.632, 54, 0, 8125, 8187, 8221, 4367, 7226, 6657, 8381, 7956, 8344
1594860809.6477, 55, 0, 8149, 8192, 8215, 4393, 7263, 6612, 8375, 7957, 8344
1594860809.6634, 56, 0, 8149, 8175, 8217, 4422, 7277, 6600, 8374, 7953, 8344
1594860809.679, 57, 0, 8165, 8135, 8228, 4455, 7206, 6599, 8376, 7958, 8345
1594860809.6947, 58, 0, 8163, 8117, 8236, 4432, 7215, 6574, 8376, 7954, 8344
1594860809.7106, 59, 0, 8149, 8092, 8254, 4403, 7232, 6568, 8380, 7955, 8343
1594860809.7264, 60, 0, 8140, 8103, 8249, 4390, 7245, 6583, 8382, 7956, 8342
1594860809.7423, 61, 0, 8130, 8164, 8260, 4412, 7185, 6692, 8381, 7953, 8343
1594860809.7581, 62, 0, 8132, 8182, 8266, 4452, 7176, 6730, 8380, 7954, 8341
1594860809.774, 63, 0, 8143, 8198, 8282, 4400, 7169, 6746, 8380, 7953, 8343
1594860809.7899, 0, 0, 8155, 8198, 8282, 4383, 7242, 6672, 8382, 7953, 8341
1594860809.8057, 1, 0, 8167, 8213, 8278, 4365, 7216, 6674, 8381, 7963, 8342
1594860809.8216, 2, 0, 8178, 8245, 8290, 4401, 7273, 6640, 8392, 7953, 8340
1594860809.8374, 3, 0, 8173, 8224, 8283, 4367, 7319, 6591, 8386, 7941, 8344
1594860809.8531, 4, 0, 8167, 8180, 8260, 4287, 7317, 6540, 8381, 7952, 8343
1594860809.8688, 5, 0, 8166, 8182, 8253, 4346, 7276, 6592, 8384, 7955, 8344
1594860809.8843, 6, 0, 8154, 8174, 8246, 4416, 7301, 6555, 8384, 7954, 8344
1594860809.9, 7, 0, 8144, 8153, 8253, 4417, 7258, 6611, 8386, 7953, 8343
1594860809.9156, 8, 0, 8153, 8166, 8264, 4398, 7283, 6579, 8384, 7953, 8345
1594860809.9313, 9, 0, 8154, 8187, 8269, 4412, 7258, 6593, 8384, 7957, 8344
1594860809.947, 10, 0, 8142, 8219, 8281, 4377, 7260, 6624, 8389, 7960, 8342
1594860809.9626, 11, 0, 8146, 8232, 8276, 4358, 7262, 6635, 8387, 7951, 8343
1594860809.9785, 12, 0, 8150, 8261, 8265, 4350, 7320, 6590, 8387, 7959, 8340
1594860809.9944, 13, 0, 8151, 8283, 8257, 4346, 7324, 6624, 8381, 7950, 8342
1594860810.0101, 14, 0, 8145, 8312, 8238, 4346, 7400, 6593, 8382, 7953, 8344
1594860810.026, 15, 0, 8142, 8312, 8230, 4387, 7312, 6634, 8384, 7948, 8341
1594860810.0418, 16, 0, 8145, 8311, 8226, 4324, 7383, 6645, 8380, 7950, 8343
1594860810.0577, 17, 0, 8195, 8312, 8221, 4364, 7358, 6666, 8379, 7956, 8344
1594860810.0736, 18, 0, 8216, 8309, 8217, 4336, 7340, 6566, 8381, 7957, 8343
1594860810.0894, 19, 0, 8237, 8293, 8190, 4318, 7418, 6464, 8378, 7958, 8345
1594860810.1053, 20, 0, 8231, 8302, 8186, 4344, 7379, 6532, 8377, 7953, 8346
1594860810.1209, 21, 0, 8224, 8295, 8162, 4368, 7307, 6444, 8379, 7953, 8347
1594860810.1366, 22, 0, 8221, 8282, 8153, 4353, 7358, 6413, 8376, 7957, 8345
1594860810.1525, 23, 0, 8221, 8266, 8151, 4379, 7308, 6477, 8377, 7956, 8348
1594860810.1682, 24, 0, 8218, 8257, 8146, 4357, 7346, 6448, 8375, 7956, 8348
1594860810.184, 25, 0, 8213, 8266, 8148, 4473, 7352, 6449, 8375, 7954, 8347
1594860810.1997, 26, 0, 8201, 8246, 8156, 4510, 7341, 6455, 8375, 7957, 8345
1594860810.2154, 27, 0, 8196, 8145, 8176, 4443, 7293, 6449, 8375, 7954, 8346
1594860810.231, 28, 0, 8205, 8112, 8182, 4443, 7298, 6449, 8371, 7959, 8347
1594860810.2467, 29, 0, 8208, 8117, 8185, 4397, 7298, 6436, 8372, 7955, 8349
1594860810.2627, 30, 0, 8206, 8167, 8180, 4409, 7321, 6394, 8376, 7954, 8347
1594860810.2784, 31, 0, 8172, 8206, 8192, 4460, 7336, 6416, 8375, 7958, 8349
1594860810.294, 32, 0, 8161, 8193, 8187, 4436, 7313, 6424, 8377, 7957, 8348
1594860810.3099, 33, 0, 8153, 8192, 8186, 4430, 7327, 6485, 8377, 7954, 8346
1594860810.3257, 34, 0, 8157, 8223, 8189, 4425, 7305, 6527, 8377, 7953, 8349
1594860810.3416, 35, 0, 8170, 8242, 8188, 4440, 7295, 6550, 8377, 7957, 8350
1594860810.3575, 36, 0, 8187, 8270, 8185, 4453, 7288, 6540, 8372, 7954, 8346
1594860810.3733, 37, 0, 8198, 8265, 8192, 4451, 7306, 6487, 8374, 7956, 8347
1594860810.3892, 38, 0, 8214, 8250, 8188, 4466, 7334, 6426, 8373, 7956, 8349
1594860810.4051, 39, 0, 8215, 8241, 8192, 4407, 7273, 6411, 8371, 7957, 8348
1594860810.4209, 40, 0, 8222, 8233, 8184, 4379, 7283, 6393, 8370, 7954, 8346
1594860810.4366, 41, 0, 8219, 8229, 8180, 4384, 7289, 6394, 8369, 7951, 8348
1594860810.4522, 42, 0, 8224, 8211, 8176, 4453, 7319, 6386, 8370, 7954, 8348
1594860810.4679, 43, 0, 8220, 8196, 8176, 4467, 7305, 6369, 8370, 7958, 8351
1594860810.4836, 44, 0, 8216, 8170, 8182, 4429, 7300, 6379, 8370, 7954, 8350
1594860810.4993, 45, 0, 8213, 8173, 8190, 4425, 7331, 6305, 8377, 7956, 8350
1594860810.5151, 46, 0, 8209, 8177, 8192, 4448, 7262, 6364, 8375, 7958, 8351
1594860810.5306, 47, 0, 8203, 8168, 8196, 4392, 7311, 6289, 8374, 7957, 8348
1594860810.5463, 48, 0, 8197, 8169, 8196, 4406, 7259, 6334, 8372, 7955, 8350
1594860810.562, 49, 0, 8187, 8169, 8191, 4425, 7304, 6360, 8373, 7978, 8347
1594860810.5776, 50, 0, 8182, 8164, 8186, 4430, 7300, 6364, 8371, 7959, 8351
1594860810.5934, 51, 0, 8178, 8160, 8184, 4478, 7276, 6429, 8370, 7957, 8350
1594860810.6093, 52, 0, 8180, 8165, 8183, 4464, 7284, 6334, 8374, 7958, 8350
1594860810.6251, 53, 0, 8170, 8163, 8189, 4483, 7277, 6359, 8372, 7959, 8352
1594860810.641, 54, 0, 8162, 8150, 8192, 4459, 7307, 6370, 8370, 7953, 8349
1594860810.6568, 55, 0, 8162, 8134, 8194, 4447, 7252, 6385, 8372, 7955, 8352
1594860810.6727, 56, 0, 8163, 8149, 8196, 4465, 7296, 6366, 8373, 7956, 8347
1594860810.6886, 57, 0, 8148, 8161, 8200, 4495, 7258, 6388, 8372, 7957, 8346
1594860810.7044, 58, 0, 8145, 8159, 8201, 4456, 7312, 6370, 8371, 7958, 8348
1594860810.7203, 59, 0, 8147, 8166, 8199, 4411, 7304, 6438, 8372, 7959, 8347
1594860810.7361, 60, 0, 8154, 8167, 8197, 4417, 7280, 6439, 8371, 7953, 8348
1594860810.7518, 61, 0, 8166, 8164, 8194, 4411, 7333, 6387, 8376, 7939, 8348
1594860810.7677, 62, 0, 8170, 8163, 8193, 4414, 7343, 6392, 8370, 7949, 8346
1594860810.7833, 63, 0, 8174, 8162, 8196, 4444, 7268, 6407, 8373, 7954, 8346
1594860810.799, 0, 0, 8172, 8160, 8198, 4407, 7320, 6356, 8370, 7952, 8347
1594860810.8148, 1, 0, 8167, 8159, 8197, 4416, 7283, 6383, 8372, 7956, 8347
1594860810.8304, 2, 0, 8167, 8151, 8196, 4419, 7276, 6387, 8370, 7956, 8347
1594860810.8462, 3, 0, 8163, 8142, 8194, 4404, 7314, 6388, 8372, 7950, 8349
1594860810.8617, 4, 0, 8163, 8122, 8185, 4394, 7320, 6411, 8371, 7952, 8347
1594860810.8774, 5, 0, 8167, 8113, 8182, 4431, 7258, 6420, 8375, 7952, 8347
1594860810.8931, 6, 0, 8161, 8136, 8191, 4414, 7265, 6419, 8376, 7958, 8347
1594860810.9087, 7, 0, 8158, 8143, 8185, 4420, 7296, 6451, 8375, 7955, 8345
1594860810.9244, 8, 0, 8156, 8130, 8184, 4424, 7306, 6460, 8371, 7958, 8344
1594860810.94, 9, 0, 8160, 8123, 8185, 4450, 7276, 6477, 8368, 7959, 8345
1594860810.9559, 10, 0, 8172, 8106, 8185, 4481, 7256, 6509, 8371, 7949, 8345
1594860810.9718, 11, 0, 8177, 8106, 8187, 4463, 7260, 6516, 8373, 7952, 8344
1594860810.9876, 12, 0, 8190, 8097, 8185, 4430, 7335, 6506, 8371, 7951, 8343
1594860811.0035, 13, 0, 8194, 8109, 8186, 4453, 7268, 6539, 8378, 7949, 8344
1594860811.0193, 14, 0, 8202, 8128, 8191, 4449, 7264, 6558, 8372, 7952, 8347
1594860811.0352, 15, 0, 8205, 8135, 8193, 4417, 7288, 6508, 8373, 7952, 8344
1594860811.0511, 16, 0, 8206, 8150, 8189, 4486, 7326, 6516, 8373, 7948, 8345
1594860811.0667, 17, 0, 8211, 8146, 8191, 4435, 7293, 6493, 8371, 7946, 8343
1594860811.0824, 18, 0, 8210, 8140, 8187, 4418, 7332, 6486, 8377, 7948, 8344
1594860811.0981, 19, 0, 8210, 8164, 8185, 4439, 7331, 6489, 8375, 7950, 8342
1594860811.1137, 20, 0, 8215, 8162, 8188, 4454, 7237, 6490, 8377, 7949, 8345
1594860811.1294, 21, 0, 8212, 8161, 8188, 4408, 7290, 6462, 8373, 7953, 8344
1594860811.1452, 22, 0, 8214, 8163, 8187, 4425, 7279, 6445, 8372, 7953, 8343
1594860811.161, 23, 0, 8200, 8160, 8191, 4419, 7261, 6432, 8375, 7945, 8346
1594860811.1769, 24, 0, 8199, 8158, 8188, 4412, 7225, 6435, 8372, 7953, 8343
1594860811.1925, 25, 0, 8187, 8144, 8185, 4394, 7245, 6426, 8372, 7952, 8344
1594860811.2082, 26, 0, 8182, 8138, 8181, 4394, 7283, 6397, 8374, 7951, 8345
1594860811.2239, 27, 0, 8174, 8139, 8184, 4396, 7238, 6434, 8373, 7952, 8342
1594860811.2396, 28, 0, 8175, 8147, 8187, 4389, 7260, 6451, 8370, 7949, 8344
1594860811.2555, 29, 0, 8175, 8164, 8188, 4408, 7267, 6479, 8370, 7953, 8341
1594860811.2713, 30, 0, 8182, 8165, 8192, 4477, 7221, 6509, 8376, 7950, 8344
1594860811.2872, 31, 0, 8186, 8162, 8197, 4472, 7219, 6513, 8372, 7950, 8343
1594860811.3031, 32, 0, 8200, 8179, 8207, 4424, 7298, 6473, 8371, 7951, 8346
1594860811.3189, 33, 0, 8201, 8188, 8212, 4449, 7264, 6498, 8376, 7954, 8343
1594860811.3348, 34, 0, 8193, 8199, 8226, 4466, 7258, 6504, 8374, 7951, 8343
1594860811.3506, 35, 0, 8193, 8183, 8229, 4420, 7256, 6516, 8374, 7941, 8343
1594860811.3663, 36, 0, 8206, 8167, 8230, 4386, 7331, 6478, 8369, 7950, 8344
1594860811.3821, 37, 0, 8207, 8168, 8226, 4405, 7324, 6473, 8371, 7951, 8343
1594860811.3977, 38, 0, 8201, 8169, 8214, 4412, 7312, 6481, 8374, 7954, 8344
1594860811.4134, 39, 0, 8208, 8162, 8206, 4424, 7266, 6489, 8370, 7951, 8344
1594860811.429, 40, 0, 8209, 8178, 8198, 4430, 7272, 6474, 8377, 7950, 8346
1594860811.4447, 41, 0, 8205, 8182, 8194, 4424, 7309, 6434, 8373, 7953, 8346
1594860811.4603, 42, 0, 8194, 8185, 8190, 4427, 7317, 6405, 8368, 7951, 8342
1594860811.4759, 43, 0, 8188, 8178, 8191, 4410, 7295, 6404, 8374, 7952, 8343
1594860811.4916, 44, 0, 8170, 8165, 8195, 4420, 7294, 6401, 8373, 7952, 8346
1594860811.5074, 45, 0, 8170, 8166, 8194, 4434, 7313, 6424, 8373, 7951, 8345
1594860811.5233, 46, 0, 8172, 8162, 8198, 4461, 7253, 6488, 8374, 7952, 8341
1594860811.5392, 47, 0, 8171, 8165, 8218, 4414, 7340, 6475, 8371, 7937, 8344
1594860811.5548, 48, 0, 8170, 8164, 8219, 4426, 7290, 6540, 8373, 7951, 8343
1594860811.5707, 49, 0, 8192, 8161, 8228, 4419, 7313, 6531, 8373, 7954, 8343
1594860811.5866, 50, 0, 8204, 8161, 8229, 4429, 7295, 6519, 8372, 7952, 8345
1594860811.6024, 51, 0, 8217, 8156, 8223, 4422, 7293, 6501, 8373, 7956, 8345
1594860811.6183, 52, 0, 8217, 8155, 8225, 4429, 7271, 6469, 8375, 7951, 8341
1594860811.6341, 53, 0, 8209, 8166, 8221, 4422, 7274, 6456, 8375, 7952, 8346
1594860811.65, 54, 0, 8198, 8171, 8219, 4420, 7265, 6463, 8376, 7951, 8345
1594860811.6659, 55, 0, 8189, 8175, 8208, 4395, 7317, 6432, 8372, 7951, 8343
1594860811.6815, 56, 0, 8187, 8188, 8205, 4393, 7308, 6432, 8370, 7951, 8345
1594860811.6972, 57, 0, 8175, 8199, 8208, 4405, 7327, 6412, 8375, 7951, 8344
1594860811.7131, 58, 0, 8173, 8193, 8204, 4422, 7313, 6443, 8375, 7951, 8347
1594860811.7287, 59, 0, 8170, 8177, 8205, 4409, 7345, 6434, 8375, 7950, 8341
1594860811.7445, 60, 0, 8173, 8167, 8202, 4343, 7383, 6498, 8372, 7953, 8344
1594860811.7601, 61, 0, 8208, 8166, 8191, 4340, 7388, 6562, 8369, 7950, 8344
1594860811.7758, 62, 0, 8233, 8166, 8179, 4361, 7439, 6581, 8376, 7952, 8347
1594860811.7915, 63, 0, 8260, 8166, 8171, 4412, 7378, 6588, 8374, 7953, 8345
1594860811.8071, 0, 0, 8319, 8149, 8166, 4437, 7379, 6567, 8373, 7954, 8347
1594860811.823, 1, 0, 8338, 8135, 8160, 4438, 7369, 6495, 8372, 7952, 8345
1594860811.8386, 2, 0, 8363, 8128, 8161, 4427, 7383, 6460, 8372, 7953, 8348
1594860811.8543, 3, 0, 8367, 8129, 8156, 4406, 7315, 6423, 8375, 7956, 8348
1594860811.8702, 4, 0, 8357, 8122, 8158, 4411, 7240, 6427, 8370, 7952, 8347
1594860811.886, 5, 0, 8341, 8119, 8154, 4415, 7284, 6333, 8379, 7952, 8348
1594860811.9019, 6, 0, 8302, 8123, 8150, 4433, 7307, 6291, 8378, 7957, 8346
1594860811.9177, 7, 0, 8273, 8125, 8158, 4432, 7304, 6289, 8373, 7955, 8349
1594860811.9336, 8, 0, 8213, 8129, 8175, 4413, 7297, 6349, 8379, 7958, 8348
1594860811.9495, 9, 0, 8190, 8136, 8176, 4408, 7311, 6376, 8378, 7955, 8348
1594860811.9653, 10, 0, 8162, 8154, 8171, 4451, 7283, 6447, 8377, 7956, 8351
1594860811.9812, 11, 0, 8151, 8161, 8175, 4440, 7322, 6459, 8375, 7957, 8348
1594860811.997, 12, 0, 8147, 8179, 8176, 4443, 7330, 6502, 8371, 7961, 8348
1594860812.0128, 13, 0, 8153, 8181, 8180, 4434, 7348, 6585, 8371, 7954, 8346
1594860812.0285, 14, 0, 8165, 8180, 8181, 4435, 7318, 6567, 8372, 7944, 8346
1594860812.0441, 15, 0, 8186, 8181, 8178, 4435, 7314, 6554, 8373, 7955, 8346
1594860812.0597, 16, 0, 8202, 8183, 8176, 4411, 7358, 6528, 8373, 7956, 8348
1594860812.0755, 17, 0, 8217, 8183, 8167, 4399, 7319, 6483, 8374, 7955, 8348
1594860812.091, 18, 0, 8218, 8184, 8167, 4406, 7297, 6470, 8374, 7954, 8347
1594860812.1068, 19, 0, 8210, 8184, 8161, 4393, 7279, 6454, 8374, 7946, 8348
1594860812.1225, 20, 0, 8201, 8179, 8156, 4399, 7297, 6436, 8375, 7958, 8346
1594860812.1383, 21, 0, 8194, 8179, 8151, 4427, 7260, 6452, 8370, 7954, 8349
1594860812.1542, 22, 0, 8190, 8179, 8152, 4405, 7313, 6435, 8374, 7955, 8349
1594860812.1698, 23, 0, 8182, 8174, 8158, 4429, 7270, 6456, 8373, 7952, 8347
1594860812.1857, 24, 0, 8184, 8176, 8154, 4417, 7273, 6475, 8373, 7945, 8347
1594860812.2016, 25, 0, 8189, 8177, 8167, 4439, 7214, 6452, 8374, 7960, 8347
1594860812.2174, 26, 0, 8189, 8179, 8168, 4429, 7270, 6449, 8374, 7959, 8348
1594860812.2333, 27, 0, 8196, 8184, 8174, 4437, 7251, 6448, 8376, 7954, 8346
1594860812.2489, 28, 0, 8190, 8185, 8183, 4457, 7253, 6468, 8377, 7955, 8348
1594860812.2648, 29, 0, 8192, 8176, 8190, 4431, 7262, 6451, 8373, 7952, 8348
1594860812.2807, 30, 0, 8195, 8171, 8191, 4395, 7305, 6447, 8376, 7955, 8348
1594860812.2965, 31, 0, 8196, 8173, 8192, 4411, 7278, 6437, 8370, 7954, 8347
1594860812.3124, 32, 0, 8195, 8184, 8176, 4411, 7317, 6426, 8372, 7953, 8349
1594860812.328, 33, 0, 8196, 8184, 8174, 4427, 7247, 6451, 8376, 7953, 8349
1594860812.3437, 34, 0, 8195, 8178, 8173, 4417, 7272, 6439, 8373, 7955, 8347
1594860812.3596, 35, 0, 8197, 8179, 8172, 4439, 7270, 6427, 8374, 7957, 8348
1594860812.3753, 36, 0, 8197, 8176, 8174, 4455, 7245, 6464, 8369, 7971, 8350
1594860812.391, 37, 0, 8200, 8173, 8177, 4440, 7289, 6462, 8371, 7956, 8348
1594860812.4068, 38, 0, 8204, 8169, 8187, 4442, 7240, 6472, 8371, 7936, 8347
1594860812.4224, 39, 0, 8209, 8171, 8187, 4419, 7289, 6424, 8371, 7962, 8348
1594860812.4381, 40, 0, 8208, 8173, 8188, 4437, 7225, 6439, 8369, 7956, 8347
1594860812.4538, 41, 0, 8207, 8170, 8190, 4421, 7263, 6437, 8373, 7953, 8348
1594860812.4694, 42, 0, 8207, 8170, 8186, 4423, 7274, 6423, 8373, 7953, 8349
1594860812.4851, 43, 0, 8211, 8173, 8186, 4423, 7287, 6420, 8370, 7957, 8349
1594860812.5009, 44, 0, 8214, 8171, 8172, 4427, 7278, 6436, 8368, 7958, 8350
1594860812.5168, 45, 0, 8210, 8168, 8174, 4410, 7283, 6419, 8369, 7956, 8347
1594860812.5326, 46, 0, 8211, 8166, 8172, 4432, 7255, 6439, 8373, 7953, 8348
1594860812.5485, 47, 0, 8214, 8170, 8171, 4427, 7266, 6425, 8370, 7958, 8348
1594860812.5644, 48, 0, 8215, 8165, 8164, 4419, 7254, 6404, 8369, 7954, 8349
1594860812.5802, 49, 0, 8211, 8164, 8175, 4456, 7279, 6433, 8370, 7955, 8345
1594860812.5961, 50, 0, 8208, 8167, 8175, 4475, 7235, 6413, 8368, 7943, 8347
1594860812.6119, 51, 0, 8199, 8159, 8180, 4437, 7287, 6429, 8367, 7955, 8350
1594860812.6277, 52, 0, 8201, 8156, 8182, 4420, 7298, 6437, 8370, 7954, 8348
1594860812.6434, 53, 0, 8209, 8151, 8183, 4421, 7236, 6472, 8371, 7956, 8349
1594860812.659, 54, 0, 8218, 8153, 8177, 4440, 7232, 6478, 8370, 7953, 8349
1594860812.6747, 55, 0, 8223, 8156, 8180, 4442, 7275, 6453, 8372, 7954, 8350
1594860812.6904, 56, 0, 8227, 8153, 8180, 4434, 7277, 6418, 8374, 7958, 8349
1594860812.7059, 57, 0, 8220, 8151, 8185, 4447, 7247, 6405, 8373, 7954, 8350
1594860812.7216, 58, 0, 8215, 8152, 8187, 4417, 7249, 6400, 8371, 7955, 8349
1594860812.7372, 59, 0, 8206, 8145, 8192, 4404, 7234, 6432, 8367, 7955, 8350
1594860812.7531, 60, 0, 8201, 8148, 8186, 4430, 7257, 6440, 8370, 7956, 8348
1594860812.7688, 61, 0, 8204, 8147, 8187, 4439, 7270, 6432, 8373, 7953, 8349
1594860812.7846, 62, 0, 8199, 8135, 8187, 4435, 7251, 6479, 8373, 7948, 8350
1594860812.8005, 63, 0, 8201, 8134, 8191, 4460, 7227, 6495, 8372, 7955, 8348
1594860812.8163, 0, 0, 8207, 8146, 8190, 4437, 7282, 6454, 8368, 7956, 8349
1594860812.8322, 1, 0, 8206, 8144, 8187, 4415, 7215, 6486, 8370, 7955, 8351
1594860812.8481, 2, 0, 8201, 8140, 8187, 4421, 7256, 6447, 8370, 7953, 8349
1594860812.8639, 3, 0, 8200, 8147, 8186, 4425, 7275, 6452, 8371, 7951, 8349
1594860812.8798, 4, 0, 8198, 8148, 8185, 4434, 7222, 6486, 8370, 7955, 8346
1594860812.8957, 5, 0, 8201, 8156, 8180, 4438, 7252, 6456, 8373, 7955, 8349
1594860812.9115, 6, 0, 8204, 8156, 8190, 4458, 7199, 6460, 8369, 7956, 8348
1594860812.9274, 7, 0, 8201, 8161, 8194, 4449, 7194, 6471, 8370, 7956, 8347
1594860812.943, 8, 0, 8214, 8149, 8201, 4399, 7264, 6428, 8372, 7955, 8349
1594860812.9587, 9, 0, 8215, 8143, 8202, 4420, 7260, 6450, 8376, 7956, 8351
1594860812.9744, 10, 0, 8216, 8134, 8205, 4432, 7213, 6436, 8374, 7947, 8351
1594860812.99, 11, 0, 8212, 8130, 8210, 4382, 7261, 6404, 8379, 7957, 8347
1594860813.0056, 12, 0, 8211, 8126, 8207, 4406, 7210, 6434, 8376, 7956, 8348
1594860813.0212, 13, 0, 8205, 8132, 8201, 4391, 7206, 6432, 8375, 7956, 8348
1594860813.037, 14, 0, 8199, 8129, 8200, 4394, 7220, 6431, 8376, 7959, 8347
1594860813.0526, 15, 0, 8191, 8125, 8197, 4417, 7208, 6407, 8373, 7955, 8348
1594860813.0682, 16, 0, 8185, 8122, 8199, 4414, 7192, 6436, 8382, 7957, 8347
1594860813.0839, 17, 0, 8181, 8103, 8203, 4429, 7229, 6408, 8376, 7957, 8346
1594860813.0996, 18, 0, 8186, 8102, 8208, 4427, 7234, 6436, 8375, 7950, 8343
1594860813.1154, 19, 0, 8189, 8093, 8221, 4443, 7208, 6485, 8376, 7955, 8349
1594860813.1312, 20, 0, 8198, 8091, 8225, 4438, 7276, 6487, 8374, 7965, 8348
1594860813.147, 21, 0, 8222, 8076, 8232, 4421, 7350, 6508, 8376, 7954, 8348
1594860813.1629, 22, 0, 8226, 8073, 8237, 4406, 7216, 6486, 8380, 7955, 8345
1594860813.1787, 23, 0, 8226, 8053, 8244, 4397, 7278, 6476, 8377, 7954, 8348
1594860813.1945, 24, 0, 8221, 8037, 8245, 4380, 7268, 6521, 8383, 7955, 8345
1594860813.2104, 25, 0, 8227, 8013, 8240, 4378, 7275, 6551, 8378, 7956, 8346
1594860813.2261, 26, 0, 8227, 8008, 8237, 4359, 7339, 6517, 8379, 7958, 8347
1594860813.2418, 27, 0, 8218, 8017, 8227, 4343, 7346, 6519, 8380, 7958, 8342
1594860813.2575, 28, 0, 8216, 8026, 8227, 4345, 7329, 6542, 8383, 7961, 8347
1594860813.2731, 29, 0, 8222, 8028, 8231, 4377, 7338, 6540, 8383, 7957, 8344
1594860813.2888, 30, 0, 8219, 7988, 8234, 4427, 7267, 6600, 8384, 7958, 8345
1594860813.3045, 31, 0, 8216, 7971, 8238, 4415, 7280, 6586, 8382, 7959, 8344
1594860813.32, 32, 0, 8208, 7950, 8243, 4345, 7303, 6609, 8383, 7949, 8343
1594860813.3357, 33, 0, 8209, 7956, 8246, 4355, 7287, 6625, 8384, 7962, 8342
1594860813.3513, 34, 0, 8197, 7980, 8258, 4351, 7310, 6621, 8388, 7961, 8342
1594860813.367, 35, 0, 8194, 7990, 8262, 4376, 7339, 6641, 8388, 7960, 8341
1594860813.3829, 36, 0, 8183, 7992, 8269, 4392, 7280, 6676, 8394, 7961, 8339
1594860813.3986, 37, 0, 8177, 7992, 8275, 4383, 7301, 6696, 8389, 7961, 8340
1594860813.4145, 38, 0, 8169, 7988, 8287, 4384, 7276, 6715, 8391, 7961, 8337
1594860813.4301, 39, 0, 8157, 7992, 8297, 4329, 7341, 6707, 8388, 7962, 8338
1594860813.446, 40, 0, 8143, 8001, 8301, 4285, 7377, 6751, 8390, 7960, 8337
1594860813.4619, 41, 0, 8136, 7995, 8299, 4311, 7374, 6771, 8395, 7958, 8335
1594860813.4777, 42, 0, 8135, 7990, 8303, 4332, 7338, 6811, 8394, 7959, 8336
1594860813.4936, 43, 0, 8133, 7986, 8310, 4339, 7356, 6808, 8397, 7962, 8336
1594860813.5095, 44, 0, 8130, 7981, 8315, 4357, 7376, 6803, 8398, 7975, 8335
1594860813.5253, 45, 0, 8125, 7979, 8331, 4384, 7312, 6842, 8395, 7960, 8332
1594860813.5412, 46, 0, 8120, 7977, 8339, 4326, 7378, 6834, 8398, 7961, 8331
1594860813.5568, 47, 0, 8117, 7982, 8353, 4343, 7343, 6913, 8406, 7960, 8331
1594860813.5727, 48, 0, 8123, 7989, 8362, 4328, 7371, 6936, 8408, 7963, 8330
1594860813.5884, 49, 0, 8136, 8009, 8385, 4309, 7445, 6937, 8405, 7960, 8329
1594860813.604, 50, 0, 8149, 8016, 8391, 4333, 7380, 6978, 8407, 7964, 8332
1594860813.6199, 51, 0, 8168, 8031, 8413, 4323, 7439, 6875, 8406, 7962, 8327
1594860813.6354, 52, 0, 8165, 8032, 8425, 4252, 7498, 6890, 8411, 7963, 8328
1594860813.6511, 53, 0, 8155, 8021, 8434, 4265, 7483, 6929, 8409, 7964, 8325
1594860813.6668, 54, 0, 8150, 8013, 8440, 4243, 7525, 6959, 8414, 7964, 8326
1594860813.6826, 55, 0, 8131, 7971, 8448, 4205, 7599, 6943, 8417, 7974, 8323
1594860813.6983, 56, 0, 8125, 7956, 8444, 4291, 7609, 7028, 8413, 7966, 8323
1594860813.7142, 57, 0, 8133, 7944, 8444, 4331, 7670, 7034, 8414, 7966, 8321
1594860813.7299, 58, 0, 8138, 7937, 8445, 4301, 7688, 7122, 8418, 7958, 8320
1594860813.7457, 59, 0, 8139, 7934, 8432, 4208, 7792, 7154, 8423, 7969, 8322
1594860813.7613, 60, 0, 8135, 7955, 8409, 4147, 7804, 7145, 8420, 7971, 8321
1594860813.777, 61, 0, 8131, 7993, 8359, 4162, 7805, 7139, 8419, 7968, 8317
1594860813.7929, 62, 0, 8133, 8018, 8343, 4195, 7821, 7119, 8420, 7969, 8318
1594860813.8087, 63, 0, 8128, 8035, 8329, 4204, 7752, 7191, 8422, 7972, 8318
1594860813.8246, 0, 0, 8127, 8059, 8286, 4150, 7778, 7193, 8422, 7972, 8318
1594860813.8404, 1, 0, 8130, 8079, 8270, 4161, 7753, 7195, 8422, 7971, 8317
1594860813.8563, 2, 0, 8138, 8125, 8243, 4180, 7748, 7187, 8426, 7972, 8316
1594860813.8722, 3, 0, 8143, 8147, 8236, 4189, 7786, 7145, 8423, 7972, 8314
1594860813.888, 4, 0, 8139, 8168, 8228, 4267, 7731, 7144, 8428, 7971, 8315
1594860813.9039, 5, 0, 8148, 8163, 8229, 4255, 7760, 7131, 8425, 7971, 8315
1594860813.9195, 6, 0, 8142, 8152, 8226, 4237, 7747, 7117, 8423, 7994, 8316
1594860813.9353, 7, 0, 8142, 8146, 8229, 4253, 7674, 7193, 8422, 7970, 8314
1594860813.951, 8, 0, 8150, 8136, 8227, 4228, 7718, 7165, 8423, 7967, 8314
1594860813.9666, 9, 0, 8161, 8139, 8225, 4259, 7649, 7190, 8425, 7971, 8316
1594860813.9823, 10, 0, 8246, 8167, 8228, 4260, 7719, 7143, 8426, 7971, 8316
1594860813.998, 11, 0, 8223, 8173, 8244, 4323, 7719, 7108, 8425, 7970, 8312
1594860814.0136, 12, 0, 8234, 8164, 8262, 4287, 7707, 7118, 8424, 7970, 8316
1594860814.0293, 13, 0, 8258, 8155, 8287, 4243, 7691, 7116, 8426, 7968, 8314
1594860814.0451, 14, 0, 8268, 8159, 8293, 4243, 7627, 7102, 8422, 7974, 8315
1594860814.061, 15, 0, 8293, 8183, 8295, 4254, 7657, 7060, 8423, 7974, 8317
1594860814.0769, 16, 0, 8300, 8195, 8298, 4295, 7682, 6997, 8425, 7975, 8316
1594860814.0927, 17, 0, 8298, 8198, 8319, 4288, 7687, 7009, 8423, 7974, 8317
1594860814.1086, 18, 0, 8300, 8192, 8329, 4257, 7787, 6922, 8429, 7989, 8317
1594860814.1244, 19, 0, 8291, 8182, 8349, 4215, 7800, 6787, 8427, 7976, 8318
1594860814.1403, 20, 0, 8277, 8170, 8357, 4257, 7796, 6600, 8427, 7986, 8318
1594860814.1561, 21, 0, 8179, 8104, 8383, 4100, 7822, 6317, 8431, 7978, 8316
1594860814.1719, 22, 0, 8085, 8047, 8378, 3940, 7797, 6486, 8431, 7977, 8315
1594860814.1877, 23, 0, 7992, 7954, 8326, 3900, 7785, 6799, 8434, 7963, 8316
1594860814.2034, 24, 0, 7985, 7938, 8297, 3926, 7817, 6988, 8436, 7981, 8314
1594860814.219, 25, 0, 7996, 7921, 8223, 3971, 7861, 7088, 8435, 7981, 8311
1594860814.2349, 26, 0, 8030, 7913, 8196, 4168, 7892, 7183, 8439, 7980, 8312
1594860814.2504, 27, 0, 8059, 7902, 8185, 4192, 7914, 7194, 8440, 7979, 8309
1594860814.2661, 28, 0, 8104, 7896, 8187, 4143, 7899, 7257, 8436, 7974, 8309
1594860814.2819, 29, 0, 8128, 7903, 8194, 4126, 7940, 7267, 8441, 7974, 8306
1594860814.2974, 30, 0, 8162, 7905, 8195, 4079, 7837, 7366, 8437, 7974, 8304
1594860814.3131, 31, 0, 8182, 7894, 8185, 4197, 7846, 7284, 8436, 7976, 8300
1594860814.3287, 32, 0, 8205, 7872, 8182, 4287, 7847, 7274, 8436, 7978, 8301
1594860814.3444, 33, 0, 8186, 7850, 8194, 4278, 7874, 7337, 8437, 7974, 8300
1594860814.3603, 34, 0, 8143, 7834, 8212, 4309, 7808, 7422, 8441, 7980, 8300
1594860814.3761, 35, 0, 8130, 7851, 8230, 4293, 7845, 7549, 8443, 7962, 8296
1594860814.392, 36, 0, 8125, 7875, 8246, 4281, 7897, 7596, 8444, 7977, 8298
1594860814.4079, 37, 0, 8128, 7873, 8249, 4286, 7890, 7705, 8446, 7975, 8292
1594860814.4237, 38, 0, 8148, 7869, 8256, 4284, 7916, 7698, 8449, 7976, 8290
1594860814.4396, 39, 0, 8161, 7877, 8260, 4297, 7878, 7710, 8447, 7976, 8291
1594860814.4554, 40, 0, 8173, 7897, 8272, 4277, 7854, 7718, 8451, 7977, 8288
1594860814.4713, 41, 0, 8177, 7904, 8270, 4232, 7952, 7663, 8449, 7976, 8287
1594860814.487, 42, 0, 8178, 7923, 8263, 4186, 7976, 7657, 8446, 7978, 8284
1594860814.5026, 43, 0, 8185, 7976, 8262, 4171, 7944, 7614, 8450, 7978, 8286
1594860814.5183, 44, 0, 8185, 7981, 8255, 4180, 7921, 7591, 8452, 7979, 8287
1594860814.5339, 45, 0, 8177, 7995, 8262, 4113, 7973, 7506, 8453, 7975, 8286
1594860814.5496, 46, 0, 8163, 7998, 8255, 4110, 7942, 7530, 8451, 7978, 8285
1594860814.5652, 47, 0, 8133, 7979, 8232, 4111, 8019, 7535, 8454, 7988, 8283
1594860814.5808, 48, 0, 8118, 7968, 8224, 4116, 7939, 7572, 8457, 7980, 8283
1594860814.5965, 49, 0, 8108, 7987, 8208, 4119, 8008, 7649, 8454, 7957, 8280
1594860814.6122, 50, 0, 8118, 8007, 8195, 4135, 8032, 7635, 8457, 7978, 8280
1594860814.6278, 51, 0, 8112, 8019, 8182, 4177, 7962, 7694, 8456, 7978, 8277
1594860814.6437, 52, 0, 8108, 8021, 8179, 4145, 8048, 7709, 8454, 7980, 8275
1594860814.6595, 53, 0, 8104, 8021, 8175, 4159, 8047, 7756, 8452, 7974, 8278
1594860814.6754, 54, 0, 8103, 8018, 8170, 4140, 8007, 7754, 8453, 7978, 8275
1594860814.6913, 55, 0, 8122, 8033, 8157, 4083, 8032, 7822, 8458, 7975, 8271
1594860814.7071, 56, 0, 8144, 8042, 8150, 4109, 7970, 7779, 8451, 7974, 8273
1594860814.723, 57, 0, 8166, 8027, 8149, 4131, 8010, 7643, 8452, 7978, 8269
1594860814.7388, 58, 0, 8194, 8000, 8145, 4113, 7988, 7572, 8454, 7973, 8269
1594860814.7547, 59, 0, 8195, 7964, 8137, 4156, 7906, 7493, 8453, 7978, 8268
1594860814.7706, 60, 0, 8162, 7904, 8137, 4213, 7911, 7496, 8457, 7976, 8267
1594860814.7864, 61, 0, 8141, 7879, 8135, 4175, 7934, 7630, 8455, 7980, 8266
1594860814.8021, 62, 0, 8102, 7795, 8148, 4225, 7959, 7697, 8451, 7973, 8264
1594860814.8178, 63, 0, 8087, 7721, 8146, 4183, 7932, 7741, 8460, 7975, 8259
1594860814.8336, 0, 0, 8058, 7609, 8127, 4189, 7904, 7866, 8460, 7974, 8258
1594860814.8494, 1, 0, 8052, 7594, 8119, 4178, 7885, 8009, 8462, 7972, 8252
1594860814.865, 2, 0, 8075, 7571, 8100, 4222, 7963, 8230, 8464, 7971, 8251
1594860814.8808, 3, 0, 8122, 7561, 8105, 4354, 7953, 8353, 8462, 7975, 8249
1594860814.8964, 4, 0, 8207, 7603, 8147, 4202, 7950, 8443, 8462, 7973, 8246
1594860814.912, 5, 0, 8235, 7634, 8154, 4318, 7928, 8408, 8465, 7968, 8246
1594860814.9277, 6, 0, 8292, 7683, 8168, 4299, 7920, 8459, 8464, 7971, 8241
1594860814.9433, 7, 0, 8315, 7696, 8183, 4245, 7940, 8406, 8469, 7967, 8236
1594860814.9592, 8, 0, 8340, 7763, 8203, 4214, 7953, 8396, 8465, 7971, 8237
1594860814.9751, 9, 0, 8342, 7792, 8206, 4188, 7847, 8372, 8467, 7972, 8239
1594860814.9909, 10, 0, 8334, 7827, 8207, 4190, 7899, 8470, 8469, 7972, 8235
1594860815.0068, 11, 0, 8339, 7896, 8209, 4171, 7903, 8511, 8465, 7971, 8235
1594860815.0226, 12, 0, 8353, 7931, 8211, 4280, 7903, 8511, 8471, 7974, 8235
1594860815.0385, 13, 0, 8376, 7969, 8215, 4307, 7855, 8528, 8472, 7973, 8236
1594860815.0544, 14, 0, 8379, 7982, 8219, 4324, 7890, 8506, 8473, 7973, 8236
1594860815.0702, 15, 0, 8384, 8024, 8220, 4331, 7899, 8545, 8474, 7977, 8236
1594860815.0861, 16, 0, 8391, 8039, 8217, 4366, 7945, 8459, 8477, 7975, 8235
1594860815.1018, 17, 0, 8353, 8080, 8216, 4363, 7948, 8495, 8474, 7977, 8235
1594860815.1174, 18, 0, 8335, 8100, 8215, 4398, 7889, 8533, 8473, 7977, 8237
1594860815.1331, 19, 0, 8316, 8136, 8214, 4341, 7857, 8605, 8469, 7974, 8236
1594860815.1488, 20, 0, 8313, 8164, 8204, 4271, 7905, 8553, 8471, 7978, 8235
1594860815.1647, 21, 0, 8294, 8239, 8182, 4238, 7906, 8433, 8473, 7975, 8236
1594860815.1804, 22, 0, 8280, 8286, 8170, 4233, 7862, 8435, 8469, 7977, 8237
1594860815.196, 23, 0, 8250, 8351, 8144, 4210, 7888, 8374, 8469, 7976, 8239
1594860815.2117, 24, 0, 8235, 8373, 8136, 4179, 7856, 8337, 8470, 7973, 8241
1594860815.2273, 25, 0, 8221, 8393, 8131, 4082, 7816, 8376, 8474, 7970, 8241
1594860815.243, 26, 0, 8203, 8407, 8097, 4101, 7795, 8331, 8470, 7976, 8242
1594860815.2587, 27, 0, 8209, 8396, 8092, 4172, 7757, 8213, 8470, 7975, 8242
1594860815.2743, 28, 0, 8213, 8398, 8092, 4137, 7672, 8206, 8468, 7973, 8246
1594860815.2902, 29, 0, 8209, 8406, 8098, 4161, 7611, 8166, 8467, 7973, 8245
1594860815.3061, 30, 0, 8203, 8413, 8123, 4232, 7626, 8153, 8465, 7973, 8249
1594860815.3219, 31, 0, 8191, 8394, 8135, 4231, 7617, 8136, 8464, 7990, 8247
1594860815.3378, 32, 0, 8169, 8356, 8157, 4245, 7620, 8134, 8467, 7974, 8249
1594860815.3536, 33, 0, 8168, 8358, 8164, 4203, 7622, 8150, 8464, 7971, 8252
1594860815.3695, 34, 0, 8165, 8378, 8191, 4207, 7678, 8102, 8464, 7974, 8251
1594860815.3854, 35, 0, 8162, 8379, 8201, 4188, 7698, 8092, 8469, 7973, 8252
1594860815.4012, 36, 0, 8149, 8388, 8212, 4213, 7680, 8095, 8464, 7973, 8252
1594860815.4169, 37, 0, 8147, 8410, 8217, 4237, 7745, 8048, 8465, 7973, 8253
1594860815.4325, 38, 0, 8124, 8433, 8235, 4317, 7821, 7942, 8463, 7973, 8256
1594860815.4482, 39, 0, 8106, 8421, 8249, 4193, 7803, 7931, 8461, 7974, 8258
1594860815.4639, 40, 0, 8075, 8378, 8258, 4133, 7800, 7999, 8462, 7971, 8255
1594860815.4794, 41, 0, 8038, 8367, 8239, 4105, 7813, 7999, 8458, 7970, 8259
1594860815.4951, 42, 0, 8026, 8365, 8228, 4107, 7891, 7976, 8462, 7974, 8259
1594860815.5108, 43, 0, 8014, 8364, 8207, 4185, 7841, 8063, 8458, 7976, 8254
1594860815.5264, 44, 0, 8020, 8367, 8199, 4099, 7902, 8100, 8456, 7972, 8259
1594860815.5421, 45, 0, 8037, 8377, 8177, 4182, 7919, 8016, 8458, 7970, 8259
1594860815.5579, 46, 0, 8048, 8379, 8174, 4145, 7945, 7994, 8459, 7970, 8261
1594860815.5738, 47, 0, 8070, 8339, 8182, 4139, 7945, 7917, 8460, 7972, 8258
1594860815.5895, 48, 0, 8088, 8333, 8178, 4134, 7923, 7905, 8460, 7970, 8260
1594860815.6053, 49, 0, 8121, 8323, 8179, 4085, 7926, 7917, 8457, 7964, 8259
1594860815.6212, 50, 0, 8140, 8314, 8174, 4067, 7829, 7974, 8456, 7968, 8262
1594860815.637, 51, 0, 8211, 8308, 8166, 4163, 7810, 7967, 8459, 7972, 8261
1594860815.6529, 52, 0, 8241, 8305, 8168, 4187, 7808, 7945, 8454, 7974, 8267
1594860815.6688, 53, 0, 8275, 8273, 8180, 4194, 7852, 7867, 8458, 7969, 8262
1594860815.6846, 54, 0, 8288, 8252, 8189, 4172, 7762, 7900, 8461, 7971, 8263
1594860815.7005, 55, 0, 8291, 8235, 8208, 4110, 7723, 7901, 8457, 7971, 8265
1594860815.7164, 56, 0, 8287, 8213, 8213, 4066, 7770, 7844, 8455, 7970, 8266
1594860815.7322, 57, 0, 8284, 8185, 8207, 4081, 7752, 7848, 8458, 7973, 8265
1594860815.7479, 58, 0, 8279, 8160, 8209, 4217, 7792, 7774, 8454, 7972, 8264
1594860815.7635, 59, 0, 8271, 8160, 8213, 4289, 7780, 7758, 8456, 7975, 8266
1594860815.7794, 60, 0, 8229, 8137, 8228, 4183, 7802, 7750, 8457, 7972, 8263
1594860815.7951, 61, 0, 8203, 8131, 8225, 4177, 7774, 7768, 8455, 7972, 8263
1594860815.8106, 62, 0, 8164, 8189, 8208, 4165, 7824, 7809, 8455, 7972, 8268
1594860815.8263, 63, 0, 8154, 8216, 8195, 4077, 7807, 7931, 8459, 7972, 8265
1594860815.8419, 0, 0, 8151, 8229, 8164, 4193, 7808, 7894, 8457, 7973, 8266
1594860815.8576, 1, 0, 8153, 8231, 8158, 4140, 7831, 7932, 8457, 7974, 8267
1594860815.8733, 2, 0, 8182, 8255, 8159, 4118, 7774, 7875, 8458, 7967, 8265
1594860815.8891, 3, 0, 8179, 8250, 8160, 4135, 7753, 7877, 8459, 7967, 8268
1594860815.905, 4, 0, 8194, 8196, 8163, 4146, 7760, 7868, 8456, 7971, 8265
1594860815.9208, 5, 0, 8207, 8178, 8176, 4227, 7840, 7756, 8454, 7971, 8266
1594860815.9367, 6, 0, 8211, 8166, 8192, 3990, 7795, 7857, 8452, 7972, 8266
1594860815.9526, 7, 0, 8217, 8173, 8183, 4117, 7825, 7783, 8452, 7973, 8267
1594860815.9684, 8, 0, 8213, 8176, 8180, 4118, 7768, 7884, 8454, 7973, 8266
1594860815.9843, 9, 0, 8212, 8150, 8169, 4078, 7831, 7841, 8456, 7972, 8269
1594860816.0002, 10, 0, 8215, 8172, 8159, 4136, 7760, 7828, 8451, 7972, 8267
1594860816.016, 11, 0, 8211, 8166, 8154, 4166, 7773, 7815, 8458, 7969, 8267
1594860816.0319, 12, 0, 8215, 8162, 8157, 4171, 7734, 7828, 8454, 7973, 8269
1594860816.0475, 13, 0, 8215, 8179, 8164, 4195, 7778, 7785, 8455, 7970, 8267
1594860816.0632, 14, 0, 8210, 8178, 8168, 4190, 7767, 7782, 8459, 7972, 8267
1594860816.0789, 15, 0, 8205, 8180, 8178, 4164, 7737, 7787, 8452, 7969, 8267
1594860816.0945, 16, 0, 8194, 8174, 8181, 4187, 7783, 7735, 8452, 7966, 8268
1594860816.1103, 17, 0, 8171, 8148, 8187, 4021, 7705, 7906, 8454, 7961, 8268
1594860816.1259, 18, 0, 8167, 8133, 8169, 4209, 7779, 7815, 8455, 7972, 8268
1594860816.1417, 19, 0, 8173, 8106, 8178, 4256, 7753, 7903, 8459, 7971, 8266
1594860816.1575, 20, 0, 8179, 8077, 8192, 4167, 7790, 7838, 8453, 7969, 8267
1594860816.1732, 21, 0, 8187, 8048, 8202, 4173, 7798, 7854, 8454, 7972, 8262
1594860816.1888, 22, 0, 8186, 8033, 8210, 4223, 7811, 7899, 8453, 7973, 8267
1594860816.2045, 23, 0, 8184, 8028, 8215, 4226, 7804, 7968, 8459, 7970, 8265
1594860816.2203, 24, 0, 8184, 8037, 8223, 4221, 7883, 7972, 8456, 7971, 8264
1594860816.2362, 25, 0, 8191, 8052, 8226, 4267, 7861, 8011, 8457, 7971, 8263
1594860816.252, 26, 0, 8207, 8059, 8240, 4200, 7884, 8003, 8460, 7972, 8261
1594860816.2679, 27, 0, 8219, 8057, 8241, 4179, 7831, 7994, 8458, 7968, 8261
1594860816.2838, 28, 0, 8235, 8099, 8237, 4144, 7869, 7975, 8460, 7972, 8263
1594860816.2996, 29, 0, 8240, 8113, 8230, 4139, 7823, 7935, 8457, 7961, 8264
1594860816.3155, 30, 0, 8245, 8139, 8215, 4155, 7826, 7897, 8458, 7968, 8264
1594860816.3313, 31, 0, 8254, 8154, 8214, 4198, 7842, 7850, 8456, 7969, 8264
1594860816.347, 32, 0, 8255, 8145, 8217, 4133, 7841, 7729, 8458, 7968, 8261
1594860816.3627, 33, 0, 8245, 8114, 8217, 4103, 7740, 7762, 8457, 7970, 8261
1594860816.3783, 34, 0, 8238, 8050, 8206, 4099, 7758, 7766, 8457, 7972, 8261
1594860816.394, 35, 0, 8236, 8037, 8207, 4048, 7741, 7692, 8459, 7972, 8264
1594860816.4097, 36, 0, 8233, 7990, 8215, 4117, 7738, 7653, 8459, 7979, 8261
1594860816.4252, 37, 0, 8227, 7953, 8228, 4006, 7727, 7538, 8456, 7976, 8260
1594860816.4409, 38, 0, 8216, 7755, 8246, 4107, 7690, 7523, 8460, 7974, 8256
1594860816.4565, 39, 0, 8221, 7636, 8300, 3899, 7702, 7490, 8464, 7974, 8255
1594860816.4722, 40, 0, 8233, 7510, 8332, 4000, 7632, 7413, 8465, 7977, 8250
1594860816.4881, 41, 0, 8268, 7288, 8410, 3868, 7637, 6946, 8468, 7985, 8245
1594860816.5037, 42, 0, 8247, 7087, 8464, 3814, 7594, 7072, 8471, 7980, 8244
1594860816.5194, 43, 0, 8183, 6578, 8560, 3834, 7614, 7396, 8477, 7982, 8231
1594860816.5352, 44, 0, 8196, 6396, 8582, 4090, 7759, 7881, 8479, 7980, 8227
1594860816.5511, 45, 0, 8260, 6217, 8619, 4231, 7768, 8014, 8490, 7984, 8217
1594860816.567, 46, 0, 8276, 6173, 8642, 4463, 7881, 8028, 8491, 7981, 8200
1594860816.5828, 47, 0, 8269, 5919, 8704, 4735, 8011, 8240, 8498, 7990, 8194
1594860816.5987, 48, 0, 8253, 5713, 8751, 4583, 8027, 8792, 8502, 8013, 8174
1594860816.6146, 49, 0, 8244, 5629, 8753, 4618, 8095, 9160, 8497, 7989, 8166
1594860816.6304, 50, 0, 8230, 5710, 8730, 4712, 8075, 9405, 8502, 7996, 8148
1594860816.6463, 51, 0, 8239, 5841, 8697, 5014, 8223, 9777, 8501, 8001, 8141
1594860816.6619, 52, 0, 8243, 5899, 8709, 5099, 8259, 9908, 8507, 8004, 8124
1594860816.6776, 53, 0, 8268, 5999, 8688, 5305, 8298, 10130, 8508, 8005, 8110
1594860816.6933, 54, 0, 8265, 6068, 8660, 5282, 8394, 10361, 8504, 8010, 8103
1594860816.7089, 55, 0, 8252, 6157, 8567, 5448, 8487, 10559, 8502, 8009, 8090
1594860816.7246, 56, 0, 8224, 6384, 8529, 5351, 8544, 10996, 8505, 8013, 8082
1594860816.7401, 57, 0, 8205, 6578, 8482, 5475, 8512, 11077, 8501, 8014, 8075
1594860816.7558, 58, 0, 8161, 6831, 8399, 5554, 8529, 11127, 8503, 8020, 8065
1594860816.7716, 59, 0, 8131, 6947, 8289, 5862, 8486, 11392, 8503, 8014, 8061
1594860816.7873, 60, 0, 8119, 7189, 8241, 5856, 8474, 11537, 8500, 8034, 8053
1594860816.8032, 61, 0, 8141, 7356, 8226, 6059, 8408, 11397, 8504, 8014, 8051
1594860816.8189, 62, 0, 8174, 7597, 8240, 6111, 8347, 11261, 8504, 8015, 8048
1594860816.8345, 63, 0, 8175, 7652, 8247, 6085, 8401, 11026, 8499, 8013, 8046
1594860816.8504, 0, 0, 8178, 7774, 8252, 6030, 8304, 11049, 8499, 8017, 8043
1594860816.8661, 1, 0, 8187, 7807, 8244, 6013, 8353, 10961, 8497, 8013, 8042
1594860816.8817, 2, 0, 8185, 7908, 8244, 6018, 8414, 10932, 8499, 8016, 8043
1594860816.8976, 3, 0, 8177, 7962, 8252, 5975, 8392, 10956, 8500, 8015, 8041
1594860816.9134, 4, 0, 8178, 7995, 8268, 5942, 8362, 10941, 8501, 8012, 8039
1594860816.9293, 5, 0, 8187, 8012, 8274, 5928, 8377, 10917, 8500, 8018, 8038
1594860816.9451, 6, 0, 8199, 8035, 8274, 5864, 8413, 10964, 8497, 8037, 8039
1594860816.961, 7, 0, 8227, 8068, 8275, 5859, 8388, 10997, 8495, 8018, 8039
1594860816.9769, 8, 0, 8239, 8097, 8274, 5877, 8453, 10936, 8498, 8034, 8038
1594860816.9925, 9, 0, 8242, 8138, 8299, 5787, 8464, 10809, 8503, 8019, 8036
1594860817.0082, 10, 0, 8232, 8137, 8300, 5700, 8445, 10790, 8501, 8019, 8037
1594860817.0238, 11, 0, 8216, 8127, 8271, 5683, 8453, 10877, 8498, 8017, 8036
1594860817.0395, 12, 0, 8219, 8124, 8259, 5690, 8477, 10890, 8497, 8019, 8036
1594860817.0551, 13, 0, 8223, 8142, 8254, 5801, 8449, 10970, 8499, 8019, 8039
1594860817.0707, 14, 0, 8228, 8135, 8277, 5736, 8437, 10925, 8501, 8026, 8035
1594860817.0864, 15, 0, 8229, 8114, 8294, 5655, 8453, 10917, 8500, 8021, 8039
1594860817.1021, 16, 0, 8229, 8106, 8281, 5549, 8468, 10875, 8498, 8022, 8038
1594860817.1177, 17, 0, 8202, 8105, 8232, 5542, 8451, 10907, 8496, 8021, 8033
1594860817.1335, 18, 0, 8192, 8103, 8218, 5700, 8420, 10969, 8496, 8019, 8035
1594860817.1493, 19, 0, 8197, 8094, 8228, 5759, 8505, 10972, 8501, 8023, 8037
1594860817.1651, 20, 0, 8207, 8086, 8233, 5750, 8430, 10885, 8496, 8021, 8035
1594860817.181, 21, 0, 8200, 8070, 8224, 5706, 8474, 10848, 8498, 8021, 8033
1594860817.1968, 22, 0, 8193, 8068, 8218, 5733, 8430, 10915, 8497, 8023, 8032
1594860817.2127, 23, 0, 8193, 8068, 8212, 5775, 8422, 10929, 8497, 8019, 8036
1594860817.2285, 24, 0, 8203, 8059, 8200, 5790, 8514, 10899, 8497, 8019, 8035
1594860817.2444, 25, 0, 8203, 8068, 8190, 5844, 8456, 10889, 8495, 8021, 8033
1594860817.2603, 26, 0, 8193, 8068, 8189, 5877, 8461, 10953, 8499, 8023, 8033
1594860817.2761, 27, 0, 8197, 8069, 8194, 5906, 8440, 10994, 8502, 8021, 8030
1594860817.2918, 28, 0, 8211, 8082, 8204, 5934, 8468, 11003, 8496, 8020, 8031
1594860817.3075, 29, 0, 8213, 8095, 8211, 5939, 8452, 11010, 8492, 8020, 8032
1594860817.3231, 30, 0, 8225, 8111, 8215, 5904, 8462, 10956, 8491, 8011, 8029
1594860817.3388, 31, 0, 8220, 8116, 8210, 5884, 8442, 10944, 8497, 8020, 8030
1594860817.3544, 32, 0, 8190, 8139, 8185, 5823, 8469, 10934, 8495, 8018, 8030
1594860817.3702, 33, 0, 8175, 8149, 8176, 5831, 8476, 11042, 8490, 8021, 8032
1594860817.3859, 34, 0, 8181, 8162, 8174, 5876, 8447, 11086, 8491, 8022, 8031
1594860817.4015, 35, 0, 8193, 8169, 8183, 5919, 8456, 11027, 8496, 8022, 8028
1594860817.4172, 36, 0, 8207, 8176, 8209, 5897, 8491, 10937, 8496, 8023, 8027
1594860817.433, 37, 0, 8203, 8176, 8219, 5766, 8492, 10851, 8494, 8023, 8029
1594860817.4489, 38, 0, 8193, 8176, 8212, 5681, 8538, 10873, 8500, 8023, 8029
1594860817.4648, 39, 0, 8186, 8161, 8182, 5673, 8511, 10905, 8495, 8022, 8030
1594860817.4806, 40, 0, 8182, 8155, 8169, 5780, 8526, 10953, 8491, 8018, 8031
1594860817.4965, 41, 0, 8193, 8146, 8164, 5799, 8504, 10981, 8495, 8020, 8029
1594860817.5124, 42, 0, 8200, 8141, 8172, 5795, 8498, 10958, 8496, 8022, 8029
1594860817.5282, 43, 0, 8211, 8138, 8170, 5788, 8564, 10907, 8491, 8020, 8028
1594860817.5441, 44, 0, 8213, 8143, 8167, 5781, 8488, 10948, 8493, 8017, 8032
1594860817.5599, 45, 0, 8212, 8145, 8152, 5759, 8485, 10954, 8495, 8021, 8029
1594860817.5758, 46, 0, 8215, 8146, 8141, 5786, 8496, 10965, 8496, 8023, 8030
1594860817.5917, 47, 0, 8222, 8155, 8119, 5820, 8486, 10929, 8491, 8016, 8030
1594860817.6073, 48, 0, 8222, 8155, 8113, 5854, 8483, 10954, 8496, 8018, 8032
1594860817.6231, 49, 0, 8234, 8161, 8123, 5879, 8442, 10941, 8496, 8018, 8030
1594860817.6388, 50, 0, 8240, 8166, 8126, 5834, 8489, 10909, 8491, 8018, 8030
1594860817.6545, 51, 0, 8238, 8163, 8121, 5823, 8413, 10951, 8493, 8018, 8031
1594860817.6702, 52, 0, 8237, 8167, 8111, 5804, 8457, 10951, 8495, 8015, 8030
1594860817.6858, 53, 0, 8233, 8165, 8103, 5837, 8392, 10997, 8496, 8016, 8028
1594860817.7015, 54, 0, 8233, 8178, 8108, 5881, 8372, 11039, 8497, 7999, 8030
1594860817.7172, 55, 0, 8241, 8181, 8110, 5864, 8422, 11022, 8491, 8016, 8029
1594860817.733, 56, 0, 8256, 8189, 8124, 5814, 8434, 10949, 8491, 8014, 8031
1594860817.7489, 57, 0, 8260, 8194, 8123, 5811, 8334, 10987, 8492, 8016, 8032
1594860817.7645, 58, 0, 8268, 8199, 8131, 5795, 8367, 10963, 8490, 8016, 8029
1594860817.7802, 59, 0, 8266, 8200, 8137, 5823, 8302, 10888, 8493, 8013, 8032
1594860817.7961, 60, 0, 8258, 8188, 8137, 5789, 8387, 10826, 8492, 8015, 8028
1594860817.8119, 61, 0, 8255, 8179, 8133, 5762, 8324, 10867, 8491, 8014, 8034
1594860817.8278, 62, 0, 8244, 8163, 8126, 5756, 8272, 10880, 8487, 8007, 8030
1594860817.8436, 63, 0, 8239, 8161, 8120, 5782, 8346, 10879, 8493, 8009, 8033
1594860817.8595, 0, 0, 8230, 8156, 8128, 5819, 8319, 10893, 8490, 8010, 8034
1594860817.8754, 1, 0, 8224, 8153, 8135, 5824, 8312, 10932, 8489, 8012, 8034
1594860817.8912, 2, 0, 8230, 8152, 8146, 5817, 8311, 10951, 8491, 8012, 8030
1594860817.9069, 3, 0, 8231, 8151, 8152, 5807, 8268, 10997, 8492, 8010, 8035
1594860817.9225, 4, 0, 8241, 8160, 8153, 5782, 8330, 10952, 8491, 8010, 8032
1594860817.9382, 5, 0, 8248, 8163, 8149, 5781, 8322, 10920, 8489, 8009, 8032
1594860817.954, 6, 0, 8250, 8166, 8141, 5779, 8278, 10972, 8495, 8009, 8032
1594860817.9697, 7, 0, 8245, 8172, 8127, 5801, 8236, 11008, 8488, 8008, 8032
1594860817.9853, 8, 0, 8248, 8172, 8132, 5806, 8236, 11002, 8488, 8010, 8033
1594860818.001, 9, 0, 8253, 8180, 8135, 5834, 8211, 10981, 8489, 8005, 8033
1594860818.0166, 10, 0, 8258, 8187, 8135, 5765, 8215, 10990, 8491, 8009, 8033
1594860818.0323, 11, 0, 8265, 8188, 8132, 5752, 8252, 10964, 8496, 8010, 8032
1594860818.0481, 12, 0, 8268, 8184, 8132, 5766, 8223, 10967, 8493, 8006, 8034
1594860818.0638, 13, 0, 8268, 8186, 8141, 5742, 8219, 10929, 8496, 8009, 8034
1594860818.0795, 14, 0, 8262, 8185, 8140, 5760, 8239, 10893, 8487, 8006, 8035
1594860818.0953, 15, 0, 8258, 8174, 8137, 5782, 8177, 10945, 8488, 8005, 8036
1594860818.1112, 16, 0, 8262, 8176, 8144, 5772, 8198, 10894, 8490, 8010, 8034
1594860818.127, 17, 0, 8256, 8165, 8147, 5756, 8194, 10858, 8488, 8006, 8037
1594860818.1429, 18, 0, 8249, 8162, 8150, 5807, 8108, 10904, 8488, 8004, 8038
1594860818.1587, 19, 0, 8243, 8161, 8151, 5784, 8173, 10855, 8489, 8004, 8036
1594860818.1745, 20, 0, 8233, 8156, 8145, 5815, 8104, 10930, 8485, 8002, 8035
1594860818.1904, 21, 0, 8228, 8154, 8148, 5785, 8115, 10961, 8489, 8004, 8036
1594860818.2063, 22, 0, 8222, 8151, 8150, 5820, 8131, 10949, 8487, 8005, 8034
1594860818.2219, 23, 0, 8222, 8151, 8157, 5803, 8158, 10967, 8482, 8002, 8036
1594860818.2376, 24, 0, 8229, 8144, 8171, 5789, 8129, 10954, 8483, 8005, 8035
1594860818.2532, 25, 0, 8229, 8144, 8175, 5811, 8050, 10952, 8486, 7999, 8037
1594860818.2689, 26, 0, 8229, 8140, 8175, 5803, 8095, 10899, 8485, 8002, 8035
1594860818.2847, 27, 0, 8225, 8136, 8182, 5821, 8090, 10897, 8488, 7999, 8036
1594860818.3004, 28, 0, 8213, 8133, 8194, 5820, 8084, 10888, 8488, 8017, 8036
1594860818.3162, 29, 0, 8209, 8132, 8200, 5857, 8033, 10967, 8489, 8004, 8036
1594860818.3317, 30, 0, 8200, 8138, 8206, 5824, 8108, 10956, 8487, 8004, 8035
1594860818.3474, 31, 0, 8193, 8133, 8215, 5818, 8074, 11008, 8486, 8000, 8037
1594860818.3631, 32, 0, 8189, 8138, 8226, 5838, 8084, 11026, 8486, 8001, 8036
1594860818.3789, 33, 0, 8195, 8145, 8229, 5829, 8066, 11013, 8489, 8003, 8035
1594860818.3948, 34, 0, 8189, 8156, 8230, 5807, 8110, 10964, 8486, 8005, 8035
1594860818.4105, 35, 0, 8184, 8156, 8230, 5818, 8079, 10981, 8484, 8001, 8037
1594860818.4263, 36, 0, 8187, 8156, 8227, 5786, 8108, 10976, 8486, 8002, 8037
1594860818.4422, 37, 0, 8178, 8159, 8213, 5786, 8137, 10970, 8482, 8005, 8033
1594860818.4579, 38, 0, 8175, 8158, 8208, 5827, 8168, 10954, 8487, 8005, 8035
1594860818.4738, 39, 0, 8174, 8160, 8211, 5819, 8152, 10971, 8487, 8003, 8035
1594860818.4897, 40, 0, 8172, 8161, 8210, 5829, 8181, 10988, 8486, 8014, 8034
1594860818.5055, 41, 0, 8169, 8161, 8216, 5803, 8135, 11018, 8491, 8003, 8036
1594860818.5212, 42, 0, 8176, 8162, 8216, 5789, 8198, 10987, 8489, 8004, 8033
1594860818.5368, 43, 0, 8185, 8157, 8212, 5785, 8182, 10953, 8486, 8006, 8033
1594860818.5525, 44, 0, 8190, 8162, 8209, 5796, 8154, 10961, 8488, 8008, 8036
1594860818.5682, 45, 0, 8192, 8154, 8201, 5786, 8185, 10940, 8489, 8003, 8036
1594860818.5839, 46, 0, 8189, 8152, 8202, 5813, 8127, 10978, 8485, 8005, 8033
1594860818.5996, 47, 0, 8190, 8144, 8199, 5831, 8164, 10964, 8487, 8006, 8032
1594860818.6153, 48, 0, 8190, 8137, 8200, 5816, 8123, 10990, 8487, 8004, 8036
1594860818.6309, 49, 0, 8190, 8137, 8196, 5818, 8144, 11003, 8487, 8006, 8032
1594860818.6466, 50, 0, 8188, 8136, 8197, 5838, 8146, 10987, 8488, 8007, 8034
1594860818.6622, 51, 0, 8187, 8143, 8195, 5844, 8144, 10999, 8488, 8005, 8034
1594860818.678, 52, 0, 8186, 8141, 8203, 5823, 8154, 10982, 8488, 8006, 8034
1594860818.6938, 53, 0, 8188, 8145, 8198, 5859, 8152, 10969, 8487, 8003, 8033
1594860818.7096, 54, 0, 8179, 8147, 8208, 5857, 8154, 10963, 8488, 8004, 8033
1594860818.7255, 55, 0, 8174, 8152, 8205, 5832, 8174, 10976, 8486, 8004, 8031
1594860818.7413, 56, 0, 8169, 8153, 8203, 5851, 8194, 10981, 8487, 8005, 8031
1594860818.7572, 57, 0, 8163, 8151, 8206, 5845, 8234, 10959, 8487, 7996, 8034
1594860818.7731, 58, 0, 8159, 8159, 8208, 5810, 8235, 10968, 8490, 8007, 8034
1594860818.7889, 59, 0, 8159, 8158, 8205, 5814, 8200, 10995, 8488, 8003, 8033
1594860818.8048, 60, 0, 8157, 8152, 8199, 5818, 8207, 11007, 8490, 8009, 8032
1594860818.8206, 61, 0, 8158, 8154, 8194, 5846, 8166, 11008, 8489, 8006, 8030
1594860818.8364, 62, 0, 8158, 8164, 8189, 5832, 8203, 10969, 8490, 8003, 8030
1594860818.8521, 63, 0, 8159, 8164, 8188, 5854, 8243, 10954, 8487, 8005, 8034
1594860818.8677, 0, 0, 8157, 8160, 8199, 5840, 8214, 10937, 8490, 8005, 8032
1594860818.8835, 1, 0, 8149, 8152, 8209, 5832, 8220, 10958, 8486, 8008, 8031
1594860818.8993, 2, 0, 8152, 8151, 8210, 5817, 8224, 10971, 8493, 8005, 8032
1594860818.9148, 3, 0, 8148, 8151, 8210, 5830, 8258, 10986, 8486, 8003, 8032
1594860818.9305, 4, 0, 8157, 8152, 8209, 5839, 8270, 10960, 8489, 8008, 8032
1594860818.9461, 5, 0, 8155, 8159, 8207, 5838, 8192, 11014, 8487, 8006, 8032
1594860818.9618, 6, 0, 8154, 8157, 8212, 5843, 8209, 11038, 8493, 8006, 8033
1594860818.9777, 7, 0, 8157, 8153, 8212, 5823, 8250, 11013, 8493, 7997, 8030
1594860818.9935, 8, 0, 8160, 8149, 8210, 5844, 8223, 11001, 8487, 8005, 8030
1594860819.0092, 9, 0, 8167, 8154, 8214, 5852, 8218, 10972, 8486, 8006, 8029
1594860819.025, 10, 0, 8167, 8158, 8219, 5843, 8241, 10966, 8488, 8009, 8032
1594860819.0409, 11, 0, 8164, 8146, 8223, 5823, 8236, 10958, 8488, 8007, 8028
1594860819.0568, 12, 0, 8162, 8146, 8222, 5840, 8253, 10979, 8490, 8001, 8032
1594860819.0726, 13, 0, 8168, 8144, 8223, 5829, 8286, 10988, 8492, 8012, 8030
1594860819.0885, 14, 0, 8175, 8148, 8222, 5856, 8278, 10999, 8491, 8008, 8031
1594860819.1044, 15, 0, 8174, 8144, 8218, 5859, 8261, 11008, 8488, 8008, 8030
1594860819.1202, 16, 0, 8180, 8148, 8218, 5838, 8314, 10972, 8491, 8008, 8029
1594860819.1361, 17, 0, 8181, 8149, 8220, 5800, 8289, 11003, 8488, 8014, 8029
1594860819.1518, 18, 0, 8180, 8153, 8216, 5823, 8270, 10983, 8491, 8011, 8031
1594860819.1677, 19, 0, 8184, 8156, 8216, 5830, 8258, 10976, 8492, 8004, 8029
1594860819.1835, 20, 0, 8191, 8150, 8213, 5857, 8292, 10934, 8486, 8011, 8029
1594860819.1991, 21, 0, 8192, 8148, 8216, 5841, 8322, 10929, 8486, 8011, 8028
1594860819.2149, 22, 0, 8199, 8136, 8217, 5830, 8296, 10990, 8492, 8008, 8029
1594860819.2305, 23, 0, 8209, 8126, 8221, 5829, 8330, 10984, 8485, 8009, 8028
1594860819.2463, 24, 0, 8215, 8123, 8216, 5828, 8300, 11000, 8488, 8010, 8028
1594860819.2619, 25, 0, 8219, 8118, 8215, 5853, 8285, 10994, 8492, 8011, 8026
1594860819.2775, 26, 0, 8219, 8120, 8211, 5854, 8255, 11007, 8494, 8013, 8030
1594860819.2932, 27, 0, 8219, 8120, 8207, 5868, 8278, 10956, 8491, 8013, 8030
1594860819.3091, 28, 0, 8204, 8131, 8195, 5863, 8292, 10955, 8486, 8010, 8027
1594860819.3249, 29, 0, 8196, 8135, 8195, 5904, 8229, 11026, 8488, 8001, 8030
1594860819.3408, 30, 0, 8189, 8135, 8200, 5901, 8289, 11017, 8486, 8009, 8029
1594860819.3566, 31, 0, 8188, 8137, 8208, 5923, 8250, 11032, 8489, 8014, 8030
1594860819.3725, 32, 0, 8187, 8140, 8219, 5907, 8265, 11010, 8494, 8007, 8027
1594860819.3884, 33, 0, 8188, 8147, 8224, 5870, 8306, 10983, 8491, 8009, 8028
1594860819.4042, 34, 0, 8188, 8142, 8216, 5887, 8321, 10967, 8486, 8010, 8028
1594860819.4201, 35, 0, 8178, 8140, 8215, 5888, 8226, 11023, 8489, 8011, 8026
1594860819.4359, 36, 0, 8175, 8148, 8211, 5877, 8281, 11010, 8488, 8011, 8030
1594860819.4518, 37, 0, 8173, 8150, 8203, 5891, 8309, 11033, 8492, 8010, 8026
1594860819.4675, 38, 0, 8174, 8153, 8200, 5901, 8270, 11048, 8488, 8012, 8026
1594860819.4831, 39, 0, 8178, 8152, 8203, 5892, 8329, 10998, 8487, 8014, 8027
1594860819.4988, 40, 0, 8175, 8147, 8205, 5900, 8250, 11037, 8487, 8011, 8025
1594860819.5145, 41, 0, 8175, 8152, 8201, 5913, 8260, 11008, 8488, 7997, 8026
1594860819.53, 42, 0, 8179, 8152, 8204, 5836, 8337, 10988, 8483, 8011, 8029
1594860819.5457, 43, 0, 8176, 8149, 8203, 5897, 8306, 11040, 8486, 8002, 8025
1594860819.5613, 44, 0, 8180, 8139, 8205, 5908, 8346, 11019, 8483, 8014, 8027
1594860819.5771, 45, 0, 8185, 8140, 8212, 5920, 8286, 11056, 8483, 8009, 8026
1594860819.5928, 46, 0, 8194, 8144, 8210, 5900, 8337, 11006, 8488, 8013, 8025
1594860819.6085, 47, 0, 8188, 8143, 8209, 5905, 8278, 11050, 8488, 8009, 8024
1594860819.6242, 48, 0, 8188, 8145, 8204, 5902, 8281, 11027, 8484, 8014, 8025
1594860819.6398, 49, 0, 8185, 8151, 8195, 5883, 8322, 11002, 8489, 8010, 8023
1594860819.6557, 50, 0, 8187, 8155, 8188, 5912, 8317, 11019, 8483, 8009, 8025
1594860819.6716, 51, 0, 8187, 8155, 8191, 5930, 8284, 11040, 8484, 8010, 8023
1594860819.6874, 52, 0, 8189, 8151, 8201, 5944, 8276, 11062, 8486, 8011, 8025
1594860819.7033, 53, 0, 8192, 8153, 8200, 5942, 8289, 11018, 8489, 8020, 8024
1594860819.719, 54, 0, 8188, 8155, 8205, 5926, 8310, 11032, 8488, 8014, 8025
1594860819.7348, 55, 0, 8190, 8155, 8201, 5922, 8308, 11032, 8487, 7993, 8023
1594860819.7507, 56, 0, 8190, 8157, 8200, 5904, 8345, 11014, 8493, 8010, 8026
1594860819.7665, 57, 0, 8189, 8157, 8194, 5930, 8271, 11046, 8493, 8009, 8023
1594860819.7824, 58, 0, 8186, 8162, 8191, 5922, 8327, 11028, 8486, 8009, 8026
1594860819.7983, 59, 0, 8190, 8166, 8192, 5912, 8336, 11001, 8489, 8012, 8026
1594860819.8139, 60, 0, 8185, 8168, 8192, 5935, 8245, 11045, 8488, 8014, 8024
1594860819.8297, 61, 0, 8185, 8169, 8191, 5940, 8298, 11038, 8489, 8014, 8026
1594860819.8453, 62, 0, 8184, 8168, 8192, 5940, 8297, 11058, 8484, 8014, 8027
1594860819.8611, 63, 0, 8187, 8170, 8193, 5940, 8283, 11063, 8486, 8010, 8026
1594860819.8767, 0, 0, 8190, 8170, 8200, 5942, 8272, 11070, 8486, 8009, 8026
1594860819.8923, 1, 0, 8196, 8172, 8200, 5911, 8350, 11014, 8485, 8012, 8025
1594860819.908, 2, 0, 8199, 8171, 8200, 5903, 8311, 11037, 8486, 8012, 8025
1594860819.9236, 3, 0, 8193, 8172, 8197, 5905, 8321, 11023, 8486, 8011, 8027
1594860819.9393, 4, 0, 8190, 8174, 8190, 5916, 8343, 11009, 8481, 8013, 8028
1594860819.955, 5, 0, 8194, 8175, 8187, 5917, 8297, 11018, 8484, 8009, 8026
1594860819.9708, 6, 0, 8189, 8175, 8182, 5924, 8292, 11081, 8490, 8012, 8023
1594860819.9867, 7, 0, 8188, 8175, 8182, 5954, 8300, 11063, 8487, 8015, 8027
1594860820.0026, 8, 0, 8191, 8175, 8183, 5916, 8346, 11028, 8486, 8011, 8026
1594860820.0182, 9, 0, 8196, 8180, 8178, 5927, 8366, 11014, 8482, 8012, 8025
1594860820.0341, 10, 0, 8194, 8181, 8174, 5953, 8289, 11044, 8481, 8010, 8026
1594860820.0499, 11, 0, 8193, 8195, 8167, 5908, 8353, 11101, 8484, 8013, 8025
1594860820.0658, 12, 0, 8195, 8202, 8174, 5888, 8270, 11086, 8485, 8008, 8026
1594860820.0817, 13, 0, 8192, 8201, 8170, 5938, 8277, 11044, 8485, 8011, 8025
1594860820.0973, 14, 0, 8192, 8211, 8170, 5920, 8267, 11001, 8485, 8012, 8027
1594860820.113, 15, 0, 8187, 8206, 8174, 5902, 8263, 10993, 8489, 8011, 8026
1594860820.1288, 16, 0, 8181, 8204, 8174, 5899, 8313, 11002, 8486, 8009, 8027
1594860820.1447, 17, 0, 8184, 8200, 8174, 5881, 8334, 11000, 8483, 8010, 8026
1594860820.1605, 18, 0, 8194, 8199, 8182, 5856, 8351, 11009, 8487, 8010, 8029
1594860820.1763, 19, 0, 8199, 8197, 8181, 5857, 8318, 10997, 8487, 8009, 8030
1594860820.192, 20, 0, 8206, 8190, 8171, 5866, 8315, 10975, 8488, 8013, 8029
1594860820.2077, 21, 0, 8198, 8187, 8170, 5881, 8342, 10987, 8485, 8009, 8025
1594860820.2234, 22, 0, 8189, 8191, 8166, 5891, 8307, 10978, 8490, 8011, 8028
1594860820.239, 23, 0, 8186, 8196, 8165, 5890, 8255, 11029, 8491, 8010, 8029
1594860820.2546, 24, 0, 8187, 8198, 8164, 5875, 8311, 10983, 8490, 8010, 8027
1594860820.2705, 25, 0, 8184, 8202, 8167, 5881, 8291, 11008, 8488, 8014, 8029
1594860820.2864, 26, 0, 8179, 8202, 8166, 5875, 8268, 11014, 8487, 8010, 8027
1594860820.3022, 27, 0, 8183, 8203, 8157, 5880, 8315, 11009, 8486, 8011, 8026
1594860820.3181, 28, 0, 8198, 8206, 8164, 5882, 8335, 10980, 8488, 8013, 8028
1594860820.3339, 29, 0, 8201, 8208, 8172, 5879, 8312, 11005, 8487, 8012, 8027
1594860820.3498, 30, 0, 8203, 8210, 8169, 5850, 8274, 11007, 8488, 8009, 8028
1594860820.3657, 31, 0, 8200, 8212, 8169, 5838, 8308, 10993, 8489, 8011, 8028
1594860820.3815, 32, 0, 8199, 8215, 8166, 5820, 8311, 10969, 8489, 8012, 8030
1594860820.3972, 33, 0, 8201, 8209, 8164, 5822, 8228, 10981, 8494, 8008, 8030
1594860820.4129, 34, 0, 8202, 8209, 8161, 5823, 8302, 10952, 8487, 8012, 8030
1594860820.4285, 35, 0, 8207, 8206, 8159, 5850, 8285, 10990, 8489, 8009, 8030
1594860820.4442, 36, 0, 8204, 8205, 8166, 5842, 8304, 10955, 8490, 8006, 8030
1594860820.4597, 37, 0, 8208, 8207, 8168, 5817, 8301, 10957, 8486, 7998, 8029
1594860820.4754, 38, 0, 8208, 8202, 8170, 5820, 8257, 10994, 8486, 8007, 8030
1594860820.4911, 39, 0, 8205, 8194, 8172, 5809, 8299, 10933, 8488, 8008, 8032
1594860820.5067, 40, 0, 8207, 8196, 8171, 5802, 8261, 10926, 8487, 8012, 8030
1594860820.5224, 41, 0, 8204, 8196, 8170, 5812, 8248, 10941, 8486, 8010, 8031
1594860820.538, 42, 0, 8198, 8195, 8163, 5824, 8327, 10892, 8488, 8005, 8031
1594860820.5538, 43, 0, 8199, 8195, 8163, 5829, 8260, 10929, 8487, 8005, 8029
1594860820.5695, 44, 0, 8205, 8193, 8162, 5774, 8308, 10908, 8489, 8005, 8032
1594860820.5853, 45, 0, 8208, 8192, 8139, 5798, 8341, 10894, 8486, 8009, 8030
1594860820.6012, 46, 0, 8211, 8190, 8127, 5785, 8309, 10967, 8489, 8007, 8032
1594860820.6171, 47, 0, 8214, 8199, 8112, 5789, 8279, 10980, 8485, 8005, 8032
1594860820.6329, 48, 0, 8208, 8195, 8107, 5810, 8269, 11064, 8489, 8006, 8032
1594860820.6488, 49, 0, 8209, 8194, 8107, 5828, 8222, 11058, 8489, 8016, 8034
1594860820.6646, 50, 0, 8222, 8185, 8119, 5845, 8256, 11054, 8485, 8005, 8035
1594860820.6805, 51, 0, 8230, 8193, 8119, 5838, 8204, 11022, 8487, 8003, 8034
1594860820.6964, 52, 0, 8237, 8201, 8134, 5845, 8206, 10984, 8490, 8001, 8036
1594860820.712, 53, 0, 8233, 8202, 8140, 5818, 8187, 10951, 8496, 8002, 8031
1594860820.7277, 54, 0, 8224, 8210, 8138, 5794, 8142, 10961, 8485, 8004, 8034
1594860820.7433, 55, 0, 8216, 8209, 8138, 5793, 8230, 10921, 8489, 8004, 8034
1594860820.7591, 56, 0, 8211, 8210, 8141, 5799, 8169, 10952, 8485, 8004, 8033
1594860820.7749, 57, 0, 8210, 8200, 8151, 5780, 8196, 10931, 8486, 8003, 8034
1594860820.7905, 58, 0, 8204, 8197, 8159, 5815, 8134, 10953, 8491, 8005, 8037
1594860820.8062, 59, 0, 8204, 8195, 8166, 5803, 8134, 10959, 8489, 8004, 8033
1594860820.8219, 60, 0, 8206, 8188, 8184, 5799, 8153, 10934, 8493, 8008, 8036
1594860820.8375, 61, 0, 8205, 8194, 8185, 5780, 8169, 10888, 8486, 8007, 8037
1594860820.8534, 62, 0, 8192, 8193, 8193, 5772, 8150, 10890, 8490, 8004, 8033
1594860820.869, 63, 0, 8184, 8194, 8194, 5710, 8209, 10830, 8488, 8016, 8036
1594860820.8849, 0, 0, 8176, 8194, 8189, 5742, 8149, 10894, 8490, 8009, 8037
1594860820.9006, 1, 0, 8163, 8184, 8180, 5745, 8212, 10885, 8491, 8007, 8033
1594860820.9162, 2, 0, 8162, 8184, 8176, 5713, 8254, 10892, 8489, 8002, 8033
1594860820.9321, 3, 0, 8165, 8172, 8176, 5731, 8204, 10899, 8487, 8001, 8034
1594860820.9479, 4, 0, 8171, 8173, 8169, 5766, 8194, 10925, 8484, 8004, 8036
1594860820.9638, 5, 0, 8174, 8171, 8166, 5755, 8265, 10917, 8491, 8003, 8035
1594860820.9797, 6, 0, 8177, 8172, 8168, 5770, 8205, 10960, 8488, 8006, 8033
1594860820.9955, 7, 0, 8172, 8166, 8168, 5771, 8207, 10969, 8487, 8006, 8036
1594860821.0113, 8, 0, 8171, 8171, 8165, 5755, 8240, 10974, 8489, 8004, 8035
1594860821.0269, 9, 0, 8178, 8184, 8169, 5773, 8181, 11009, 8484, 8004, 8034
1594860821.0428, 10, 0, 8186, 8194, 8173, 5766, 8263, 10949, 8487, 8000, 8034
1594860821.0585, 11, 0, 8193, 8196, 8180, 5767, 8236, 10923, 8485, 8002, 8037
1594860821.0741, 12, 0, 8198, 8196, 8185, 5763, 8171, 10957, 8484, 8004, 8036
1594860821.0898, 13, 0, 8202, 8189, 8191, 5752, 8194, 10933, 8488, 8002, 8037
1594860821.1055, 14, 0, 8202, 8191, 8186, 5700, 8220, 10888, 8487, 8001, 8036
1594860821.1211, 15, 0, 8206, 8189, 8179, 5688, 8241, 10866, 8487, 8002, 8038
1594860821.1369, 16, 0, 8203, 8181, 8165, 5715, 8199, 10884, 8484, 8001, 8037
1594860821.1527, 17, 0, 8200, 8179, 8163, 5726, 8227, 10857, 8487, 8006, 8035
1594860821.1686, 18, 0, 8191, 8178, 8159, 5743, 8226, 10875, 8482, 8002, 8035
1594860821.1843, 19, 0, 8189, 8183, 8156, 5751, 8208, 10889, 8488, 8005, 8034
1594860821.2001, 20, 0, 8185, 8178, 8170, 5741, 8206, 10889, 8484, 8001, 8037
1594860821.216, 21, 0, 8182, 8180, 8169, 5747, 8226, 10892, 8487, 8004, 8038
1594860821.2318, 22, 0, 8186, 8174, 8186, 5737, 8173, 10930, 8486, 8001, 8034
1594860821.2477, 23, 0, 8188, 8175, 8184, 5732, 8179, 10946, 8489, 7989, 8035
1594860821.2636, 24, 0, 8198, 8172, 8187, 5723, 8196, 10929, 8488, 8003, 8035
1594860821.2794, 25, 0, 8203, 8173, 8188, 5718, 8214, 10888, 8492, 8002, 8038
1594860821.2953, 26, 0, 8204, 8170, 8183, 5753, 8171, 10916, 8486, 8001, 8036
1594860821.3112, 27, 0, 8197, 8168, 8177, 5716, 8239, 10914, 8488, 8002, 8037
1594860821.3268, 28, 0, 8201, 8163, 8178, 5719, 8245, 10947, 8487, 8004, 8033
1594860821.3425, 29, 0, 8205, 8167, 8171, 5743, 8204, 10944, 8489, 8000, 8037
1594860821.3581, 30, 0, 8212, 8180, 8176, 5756, 8218, 10923, 8491, 8001, 8038
1594860821.3738, 31, 0, 8216, 8184, 8180, 5789, 8163, 10940, 8491, 8006, 8036
1594860821.3895, 32, 0, 8215, 8186, 8183, 5779, 8157, 10937, 8489, 7999, 8036
1594860821.4052, 33, 0, 8216, 8188, 8191, 5745, 8182, 10913, 8490, 8001, 8036
1594860821.4209, 34, 0, 8212, 8193, 8191, 5750, 8152, 10921, 8485, 8001, 8036
1594860821.4367, 35, 0, 8217, 8197, 8190, 5735, 8210, 10878, 8481, 8005, 8039
1594860821.4524, 36, 0, 8213, 8195, 8188, 5692, 8213, 10849, 8490, 8005, 8037
1594860821.4681, 37, 0, 8204, 8186, 8187, 5718, 8140, 10861, 8490, 8000, 8036
1594860821.4839, 38, 0, 8195, 8180, 8179, 5699, 8181, 10863, 8488, 7999, 8039
1594860821.4998, 39, 0, 8191, 8172, 8173, 5730, 8137, 10909, 8486, 7999, 8037
1594860821.5157, 40, 0, 8189, 8170, 8176, 5754, 8200, 10897, 8489, 7991, 8037
1594860821.5315, 41, 0, 8197, 8167, 8194, 5741, 8183, 10936, 8491, 8002, 8039
1594860821.5474, 42, 0, 8199, 8167, 8200, 5741, 8239, 10899, 8489, 8008, 8035
1594860821.5632, 43, 0, 8199, 8167, 8204, 5769, 8177, 10964, 8493, 8002, 8039
1594860821.5791, 44, 0, 8198, 8167, 8206, 5732, 8207, 10865, 8491, 8001, 8039
1594860821.595, 45, 0, 8196, 8167, 8201, 5697, 8190, 10910, 8487, 8004, 8040
1594860821.6108, 46, 0, 8192, 8168, 8192, 5697, 8186, 10884, 8485, 8001, 8038
1594860821.6267, 47, 0, 8188, 8163, 8192, 5731, 8176, 10918, 8486, 8007, 8040
1594860821.6423, 48, 0, 8184, 8165, 8186, 5729, 8209, 10929, 8489, 8005, 8038
1594860821.658, 49, 0, 8185, 8168, 8191, 5718, 8234, 10891, 8493, 8001, 8038
1594860821.6739, 50, 0, 8181, 8165, 8187, 5702, 8169, 10891, 8486, 8004, 8036
1594860821.6897, 51, 0, 8179, 8165, 8181, 5707, 8175, 10896, 8488, 8001, 8037
1594860821.7053, 52, 0, 8182, 8158, 8178, 5732, 8158, 10917, 8486, 8003, 8042
1594860821.721, 53, 0, 8183, 8155, 8174, 5730, 8179, 10899, 8486, 8003, 8037
1594860821.7366, 54, 0, 8186, 8159, 8181, 5752, 8179, 10933, 8488, 8016, 8039
1594860821.7523, 55, 0, 8191, 8166, 8186, 5777, 8188, 10950, 8487, 8002, 8037
1594860821.7679, 56, 0, 8188, 8160, 8199, 5787, 8148, 10963, 8488, 8003, 8037
1594860821.7836, 57, 0, 8193, 8166, 8204, 5761, 8182, 10931, 8486, 7998, 8039
1594860821.7995, 58, 0, 8193, 8170, 8206, 5746, 8210, 10913, 8483, 8002, 8036
1594860821.8151, 59, 0, 8187, 8169, 8205, 5730, 8192, 10907, 8486, 8000, 8036
1594860821.831, 60, 0, 8180, 8176, 8205, 5744, 8128, 10928, 8489, 8002, 8038
1594860821.8468, 61, 0, 8179, 8179, 8199, 5739, 8198, 10904, 8492, 8004, 8038
1594860821.8627, 62, 0, 8178, 8178, 8203, 5770, 8167, 10909, 8487, 8000, 8038
1594860821.8786, 63, 0, 8173, 8184, 8211, 5748, 8248, 10888, 8491, 7999, 8038
1594860821.8944, 0, 0, 8170, 8180, 8218, 5723, 8188, 10882, 8488, 7990, 8036
1594860821.9103, 1, 0, 8174, 8179, 8218, 5713, 8195, 10875, 8486, 8003, 8036
1594860821.9261, 2, 0, 8171, 8179, 8217, 5696, 8241, 10856, 8485, 7984, 8038
1594860821.9418, 3, 0, 8181, 8177, 8205, 5713, 8217, 10905, 8487, 8004, 8038
1594860821.9575, 4, 0, 8179, 8179, 8206, 5708, 8226, 10917, 8485, 8006, 8039
1594860821.9731, 5, 0, 8176, 8174, 8205, 5703, 8193, 10936, 8487, 8001, 8038
1594860821.9888, 6, 0, 8181, 8172, 8202, 5707, 8219, 10911, 8486, 8005, 8037
1594860822.0045, 7, 0, 8188, 8167, 8199, 5704, 8214, 10896, 8487, 7999, 8039
1594860822.02, 8, 0, 8185, 8163, 8197, 5778, 8232, 10887, 8482, 8005, 8036
1594860822.0357, 9, 0, 8183, 8169, 8200, 5789, 8226, 10918, 8484, 8006, 8038
1594860822.0513, 10, 0, 8176, 8173, 8208, 5716, 8188, 10911, 8487, 8000, 8037
1594860822.067, 11, 0, 8180, 8175, 8204, 5739, 8204, 10921, 8489, 8004, 8039
1594860822.0829, 12, 0, 8180, 8181, 8201, 5722, 8210, 10923, 8488, 7983, 8038
1594860822.0987, 13, 0, 8182, 8180, 8198, 5713, 8259, 10884, 8488, 8007, 8036
1594860822.1145, 14, 0, 8180, 8182, 8200, 5713, 8270, 10885, 8488, 8019, 8039
1594860822.1304, 15, 0, 8178, 8182, 8200, 5743, 8224, 10923, 8495, 8002, 8038
1594860822.1462, 16, 0, 8180, 8176, 8203, 5728, 8210, 10903, 8492, 8002, 8040
1594860822.1621, 17, 0, 8179, 8175, 8202, 5705, 8204, 10885, 8485, 8000, 8036
1594860822.1779, 18, 0, 8182, 8173, 8197, 5710, 8192, 10887, 8487, 7998, 8039
1594860822.1937, 19, 0, 8184, 8169, 8197, 5703, 8245, 10909, 8486, 7999, 8037
1594860822.2096, 20, 0, 8183, 8165, 8192, 5724, 8215, 10914, 8492, 8001, 8039
1594860822.2254, 21, 0, 8185, 8166, 8190, 5737, 8268, 10883, 8491, 8004, 8038
1594860822.2413, 22, 0, 8182, 8171, 8192, 5753, 8204, 10907, 8487, 8005, 8037
1594860822.2569, 23, 0, 8182, 8170, 8195, 5748, 8258, 10891, 8489, 8004, 8039
1594860822.2726, 24, 0, 8179, 8167, 8203, 5731, 8250, 10892, 8488, 7992, 8037
1594860822.2883, 25, 0, 8181, 8173, 8200, 5730, 8283, 10924, 8488, 8007, 8035
1594860822.3039, 26, 0, 8182, 8180, 8195, 5730, 8255, 10910, 8491, 7985, 8039
1594860822.3196, 27, 0, 8182, 8181, 8198, 5724, 8266, 10898, 8490, 8006, 8037
1594860822.3351, 28, 0, 8183, 8183, 8196, 5765, 8239, 10904, 8488, 8006, 8037
1594860822.3508, 29, 0, 8185, 8185, 8200, 5721, 8256, 10876, 8489, 8002, 8036
1594860822.3665, 30, 0, 8182, 8183, 8201, 5695, 8293, 10859, 8491, 8003, 8039
1594860822.3823, 31, 0, 8175, 8180, 8189, 5706, 8304, 10917, 8487, 8001, 8038
1594860822.3982, 32, 0, 8176, 8180, 8195, 5700, 8320, 10909, 8490, 8005, 8042
1594860822.4141, 33, 0, 8184, 8183, 8192, 5708, 8286, 10905, 8487, 8008, 8041
1594860822.4297, 34, 0, 8188, 8185, 8191, 5712, 8246, 10932, 8488, 8004, 8039
1594860822.4456, 35, 0, 8193, 8188, 8183, 5681, 8310, 10878, 8486, 8002, 8041
1594860822.4614, 36, 0, 8197, 8193, 8182, 5682, 8295, 10879, 8486, 8015, 8038
1594860822.4773, 37, 0, 8191, 8185, 8177, 5704, 8268, 10911, 8489, 8002, 8036
1594860822.4932, 38, 0, 8191, 8185, 8175, 5701, 8224, 10886, 8489, 8012, 8038
1594860822.509, 39, 0, 8196, 8189, 8169, 5728, 8264, 10869, 8486, 8001, 8039
1594860822.5247, 40, 0, 8196, 8189, 8173, 5718, 8291, 10855, 8490, 7999, 8041
1594860822.5405, 41, 0, 8199, 8183, 8184, 5706, 8257, 10863, 8488, 8007, 8037
1594860822.5564, 42, 0, 8199, 8183, 8188, 5710, 8229, 10884, 8489, 8003, 8039
1594860822.5723, 43, 0, 8195, 8182, 8187, 5695, 8250, 10853, 8487, 8007, 8040
1594860822.5879, 44, 0, 8196, 8183, 8186, 5662, 8312, 10840, 8486, 8006, 8039
1594860822.6036, 45, 0, 8194, 8184, 8179, 5675, 8244, 10882, 8485, 8002, 8038
1594860822.6193, 46, 0, 8199, 8183, 8177, 5685, 8268, 10882, 8485, 8003, 8038
1594860822.6349, 47, 0, 8200, 8186, 8176, 5695, 8236, 10899, 8487, 8002, 8039
1594860822.6506, 48, 0, 8194, 8191, 8181, 5691, 8261, 10862, 8487, 8001, 8038
1594860822.6662, 49, 0, 8199, 8187, 8180, 5708, 8270, 10864, 8492, 8005, 8038
1594860822.6819, 50, 0, 8201, 8190, 8190, 5690, 8261, 10864, 8487, 8003, 8039
1594860822.6976, 51, 0, 8201, 8187, 8196, 5666, 8242, 10866, 8488, 8002, 8039
1594860822.7132, 52, 0, 8205, 8188, 8190, 5660, 8254, 10841, 8491, 8003, 8041
1594860822.7291, 53, 0, 8208, 8186, 8189, 5663, 8218, 10858, 8490, 8000, 8041
1594860822.7447, 54, 0, 8203, 8187, 8181, 5656, 8256, 10859, 8491, 8004, 8039
1594860822.7606, 55, 0, 8201, 8187, 8181, 5667, 8230, 10869, 8487, 8001, 8037
1594860822.7765, 56, 0, 8204, 8187, 8180, 5666, 8283, 10849, 8485, 8000, 8042
1594860822.7923, 57, 0, 8201, 8188, 8181, 5672, 8220, 10875, 8488, 8001, 8041
1594860822.8082, 58, 0, 8209, 8187, 8176, 5683, 8199, 10865, 8487, 8003, 8041
1594860822.8241, 59, 0, 8209, 8188, 8183, 5669, 8272, 10819, 8489, 8001, 8044
1594860822.8399, 60, 0, 8207, 8185, 8182, 5673, 8243, 10817, 8487, 7994, 8045
1594860822.8558, 61, 0, 8206, 8185, 8184, 5677, 8207, 10845, 8492, 8003, 8042
1594860822.8716, 62, 0, 8207, 8184, 8182, 5666, 8228, 10860, 8489, 8002, 8040
1594860822.8873, 63, 0, 8202, 8182, 8182, 5647, 8261, 10844, 8492, 8002, 8040
1594860822.903, 0, 0, 8204, 8180, 8184, 5676, 8195, 10879, 8492, 8004, 8042
1594860822.9186, 1, 0, 8205, 8183, 8180, 5675, 8207, 10872, 8491, 8003, 8041
1594860822.9343, 2, 0, 8204, 8181, 8186, 5671, 8213, 10875, 8491, 8003, 8040
1594860822.9501, 3, 0, 8201, 8193, 8182, 5643, 8265, 10840, 8488, 8000, 8042
1594860822.9659, 4, 0, 8199, 8194, 8180, 5629, 8268, 10842, 8495, 8003, 8043
1594860822.9816, 5, 0, 8198, 8191, 8177, 5654, 8194, 10882, 8495, 8001, 8043
1594860822.9972, 6, 0, 8197, 8194, 8176, 5653, 8265, 10814, 8492, 8000, 8042
1594860823.0131, 7, 0, 8199, 8197, 8173, 5651, 8222, 10840, 8492, 7995, 8043
1594860823.0287, 8, 0, 8196, 8195, 8176, 5659, 8254, 10826, 8491, 8001, 8042
1594860823.0444, 9, 0, 8201, 8199, 8176, 5649, 8252, 10850, 8492, 8001, 8044
1594860823.0603, 10, 0, 8202, 8196, 8177, 5670, 8173, 10882, 8490, 8001, 8043
1594860823.0761, 11, 0, 8204, 8202, 8179, 5663, 8243, 10815, 8486, 8000, 8044
1594860823.092, 12, 0, 8203, 8205, 8181, 5670, 8172, 10847, 8496, 8003, 8046
1594860823.1079, 13, 0, 8200, 8207, 8185, 5613, 8255, 10835, 8490, 8001, 8043
1594860823.1237, 14, 0, 8196, 8215, 8175, 5629, 8179, 10881, 8488, 7998, 8046
1594860823.1396, 15, 0, 8196, 8213, 8179, 5623, 8243, 10822, 8488, 7999, 8043
1594860823.1553, 16, 0, 8199, 8215, 8181, 5621, 8250, 10812, 8490, 8004, 8043
1594860823.1712, 17, 0, 8200, 8220, 8185, 5652, 8186, 10857, 8492, 8003, 8044
1594860823.187, 18, 0, 8195, 8222, 8196, 5653, 8210, 10780, 8491, 8000, 8044
1594860823.2028, 19, 0, 8193, 8226, 8192, 5640, 8202, 10821, 8492, 7999, 8043
1594860823.2187, 20, 0, 8189, 8223, 8190, 5608, 8194, 10821, 8490, 7977, 8046
1594860823.2345, 21, 0, 8189, 8225, 8184, 5625, 8241, 10807, 8494, 7998, 8045
1594860823.2503, 22, 0, 8191, 8232, 8182, 5566, 8213, 10834, 8490, 8000, 8044
1594860823.266, 23, 0, 8190, 8227, 8181, 5600, 8213, 10812, 8490, 8000, 8048
1594860823.2816, 24, 0, 8190, 8235, 8177, 5603, 8217, 10798, 8496, 8000, 8047
1594860823.2973, 25, 0, 8190, 8233, 8175, 5633, 8174, 10809, 8487, 8000, 8048
1594860823.313, 26, 0, 8189, 8231, 8172, 5600, 8251, 10779, 8490, 8001, 8046
1594860823.3286, 27, 0, 8191, 8231, 8175, 5594, 8198, 10804, 8491, 8000, 8049
1594860823.3444, 28, 0, 8196, 8232, 8174, 5613, 8188, 10802, 8492, 8003, 8050
1594860823.36, 29, 0, 8206, 8229, 8180, 5591, 8227, 10784, 8495, 8001, 8050
1594860823.3759, 30, 0, 8210, 8230, 8183, 5584, 8216, 10755, 8491, 7999, 8048
1594860823.3918, 31, 0, 8199, 8230, 8188, 5560, 8228, 10719, 8491, 7997, 8048
1594860823.4076, 32, 0, 8199, 8225, 8187, 5530, 8201, 10739, 8492, 8003, 8051
1594860823.4235, 33, 0, 8190, 8218, 8181, 5536, 8237, 10727, 8489, 8003, 8052
1594860823.4392, 34, 0, 8193, 8211, 8176, 5553, 8179, 10752, 8493, 7994, 8051
1594860823.455, 35, 0, 8190, 8200, 8183, 5579, 8229, 10746, 8493, 8009, 8048
1594860823.4709, 36, 0, 8190, 8197, 8188, 5605, 8201, 10802, 8488, 8004, 8052
1594860823.4866, 37, 0, 8192, 8196, 8205, 5529, 8209, 10783, 8492, 7997, 8049
1594860823.5023, 38, 0, 8196, 8193, 8201, 5518, 8193, 10771, 8491, 7997, 8050
1594860823.518, 39, 0, 8198, 8193, 8192, 5520, 8243, 10741, 8494, 7999, 8051
1594860823.5336, 40, 0, 8196, 8187, 8191, 5532, 8195, 10765, 8495, 8002, 8053
1594860823.5494, 41, 0, 8190, 8182, 8181, 5534, 8227, 10730, 8495, 8002, 8052
1594860823.565, 42, 0, 8189, 8184, 8175, 5567, 8224, 10757, 8491, 7999, 8052
1594860823.5807, 43, 0, 8186, 8184, 8179, 5565, 8228, 10766, 8498, 8005, 8051
1594860823.5964, 44, 0, 8185, 8187, 8176, 5565, 8197, 10799, 8492, 8001, 8053
1594860823.612, 45, 0, 8187, 8193, 8178, 5576, 8182, 10808, 8493, 7999, 8050
1594860823.6277, 46, 0, 8196, 8202, 8181, 5571, 8245, 10828, 8490, 7993, 8052
1594860823.6436, 47, 0, 8198, 8207, 8185, 5549, 8210, 10868, 8495, 8004, 8052
1594860823.6592, 48, 0, 8212, 8224, 8183, 5510, 8220, 10829, 8496, 8001, 8052
1594860823.6751, 49, 0, 8219, 8236, 8179, 5531, 8247, 10758, 8490, 8001, 8053
1594860823.6909, 50, 0, 8221, 8257, 8166, 5554, 8217, 10765, 8494, 8001, 8052
1594860823.7068, 51, 0, 8212, 8255, 8163, 5550, 8193, 10757, 8490, 7998, 8056
1594860823.7227, 52, 0, 8204, 8266, 8149, 5508, 8227, 10742, 8490, 8001, 8054
1594860823.7385, 53, 0, 8192, 8267, 8144, 5517, 8183, 10790, 8495, 7999, 8055
1594860823.7544, 54, 0, 8186, 8288, 8128, 5542, 8195, 10816, 8493, 8000, 8054
1594860823.7702, 55, 0, 8184, 8289, 8135, 5525, 8221, 10804, 8497, 7997, 8054
1594860823.7861, 56, 0, 8194, 8303, 8147, 5527, 8224, 10760, 8495, 7997, 8058
1594860823.802, 57, 0, 8200, 8315, 8152, 5560, 8138, 10800, 8491, 7999, 8058
1594860823.8176, 58, 0, 8207, 8340, 8165, 5546, 8159, 10820, 8493, 7999, 8058
1594860823.8333, 59, 0, 8208, 8358, 8175, 5457, 8195, 10810, 8496, 8000, 8059
1594860823.8489, 60, 0, 8211, 8371, 8177, 5473, 8145, 10773, 8494, 7996, 8060
1594860823.8645, 61, 0, 8210, 8404, 8166, 5498, 8175, 10694, 8494, 7996, 8060
1594860823.8802, 62, 0, 8205, 8414, 8165, 5491, 8206, 10692, 8491, 7999, 8062
1594860823.8958, 63, 0, 8196, 8438, 8164, 5474, 8195, 10710, 8494, 7998, 8065
1594860823.9115, 0, 0, 8193, 8460, 8163, 5404, 8167, 10719, 8488, 7997, 8067
1594860823.9273, 1, 0, 8194, 8492, 8170, 5390, 8146, 10698, 8493, 8000, 8070
1594860823.943, 2, 0, 8193, 8503, 8172, 5383, 8189, 10596, 8497, 7997, 8069
1594860823.9587, 3, 0, 8188, 8539, 8163, 5428, 8168, 10579, 8499, 7999, 8072
1594860823.9743, 4, 0, 8178, 8557, 8169, 5418, 8170, 10557, 8496, 7997, 8075
1594860823.9902, 5, 0, 8161, 8592, 8189, 5398, 8126, 10574, 8496, 7996, 8073
1594860824.0061, 6, 0, 8153, 8616, 8194, 5298, 8141, 10561, 8495, 7997, 8080
1594860824.0219, 7, 0, 8154, 8697, 8187, 5274, 8148, 10575, 8500, 7995, 8081
1594860824.0378, 8, 0, 8154, 8728, 8188, 5247, 8142, 10546, 8493, 7996, 8085
1594860824.0536, 9, 0, 8154, 8776, 8196, 5215, 8242, 10449, 8495, 7995, 8088
1594860824.0695, 10, 0, 8155, 8802, 8192, 5199, 8229, 10448, 8498, 7997, 8091
1594860824.0853, 11, 0, 8162, 8832, 8197, 5129, 8198, 10433, 8500, 7997, 8096
1594860824.1011, 12, 0, 8172, 8870, 8189, 5063, 8224, 10319, 8497, 7999, 8099
1594860824.1168, 13, 0, 8174, 8891, 8185, 5056, 8177, 10285, 8499, 7986, 8105
1594860824.1327, 14, 0, 8177, 8952, 8166, 5010, 8233, 10204, 8505, 8000, 8110
1594860824.1484, 15, 0, 8175, 8972, 8171, 4984, 8226, 10211, 8507, 7994, 8114
1594860824.1643, 16, 0, 8173, 8984, 8172, 4923, 8225, 10157, 8500, 7997, 8116
1594860824.1801, 17, 0, 8174, 8977, 8168, 4901, 8178, 10056, 8500, 7994, 8121
1594860824.1958, 18, 0, 8160, 8975, 8147, 4952, 8260, 10001, 8499, 7990, 8126
1594860824.2115, 19, 0, 8153, 8975, 8149, 4844, 8262, 9988, 8497, 7996, 8128
1594860824.2271, 20, 0, 8157, 9009, 8150, 4771, 8238, 9956, 8501, 7996, 8135
1594860824.2428, 21, 0, 8162, 9044, 8144, 4781, 8186, 9875, 8499, 7999, 8135
1594860824.2585, 22, 0, 8169, 9111, 8137, 4760, 8232, 9789, 8507, 7998, 8143
1594860824.2744, 23, 0, 8172, 9137, 8129, 4668, 8234, 9712, 8502, 7982, 8152
1594860824.2903, 24, 0, 8165, 9166, 8121, 4600, 8211, 9522, 8505, 7994, 8157
1594860824.3061, 25, 0, 8159, 9193, 8113, 4524, 8161, 9466, 8503, 8005, 8162
1594860824.322, 26, 0, 8161, 9277, 8075, 4473, 8162, 9326, 8497, 7994, 8164
1594860824.3377, 27, 0, 8158, 9309, 8051, 4483, 8111, 9295, 8497, 7991, 8174
1594860824.3535, 28, 0, 8151, 9326, 8036, 4524, 8095, 9214, 8497, 7990, 8177
1594860824.3694, 29, 0, 8142, 9308, 8021, 4525, 8138, 9171, 8491, 7994, 8183
1594860824.3852, 30, 0, 8134, 9290, 8018, 4527, 8088, 9114, 8495, 7991, 8187
1594860824.4011, 31, 0, 8143, 9271, 8017, 4489, 8068, 8984, 8489, 7991, 8193
1594860824.417, 32, 0, 8168, 9272, 8011, 4435, 8050, 8950, 8488, 7989, 8202
1594860824.4326, 33, 0, 8239, 9264, 7994, 4427, 8066, 8822, 8492, 7988, 8208
1594860824.4483, 34, 0, 8254, 9234, 8000, 4476, 8100, 8735, 8486, 7990, 8212
1594860824.4639, 35, 0, 8278, 9137, 8050, 4487, 8050, 8586, 8484, 7977, 8221
1594860824.4796, 36, 0, 8287, 9090, 8083, 4388, 8025, 8537, 8480, 7986, 8223
1594860824.4952, 37, 0, 8298, 9054, 8129, 4343, 7983, 8509, 8480, 7986, 8229
1594860824.5108, 38, 0, 8305, 9054, 8149, 4415, 7949, 8471, 8483, 7983, 8232
1594860824.5265, 39, 0, 8314, 9096, 8212, 4507, 7900, 8583, 8473, 7986, 8241
1594860824.5422, 40, 0, 8344, 9104, 8273, 4631, 7909, 8639, 8477, 7988, 8240
1594860824.5578, 41, 0, 8467, 9105, 8403, 4550, 7933, 8598, 8473, 7988, 8251
1594860824.5735, 42, 0, 8528, 9124, 8448, 4338, 8011, 8389, 8473, 7990, 8256
1594860824.5892, 43, 0, 8563, 9157, 8466, 4267, 8116, 7810, 8469, 7997, 8258
1594860824.6051, 44, 0, 8540, 9167, 8445, 4060, 8188, 7568, 8470, 7998, 8269
1594860824.6209, 45, 0, 8506, 9135, 8404, 3858, 8243, 7355, 8468, 7999, 8272
1594860824.6366, 46, 0, 8411, 9023, 8308, 3877, 8246, 7242, 8468, 7999, 8277
1594860824.6525, 47, 0, 8348, 8953, 8258, 4003, 8237, 7210, 8462, 7994, 8283
1594860824.6683, 48, 0, 8221, 8836, 8199, 4006, 8226, 7211, 8464, 8001, 8288
1594860824.6842, 49, 0, 8175, 8793, 8179, 4090, 8172, 7349, 8463, 8004, 8287
1594860824.7001, 50, 0, 8104, 8722, 8142, 4117, 8107, 7508, 8460, 7996, 8289
1594860824.7159, 51, 0, 8092, 8698, 8121, 4165, 8035, 7621, 8460, 7999, 8293
1594860824.7316, 52, 0, 8130, 8612, 8110, 4250, 8051, 7501, 8455, 7996, 8294
1594860824.7475, 53, 0, 8142, 8550, 8128, 4220, 8029, 7453, 8455, 7994, 8297
1594860824.7631, 54, 0, 8159, 8455, 8147, 4134, 8067, 7353, 8452, 7994, 8299
1594860824.7788, 55, 0, 8162, 8425, 8157, 4162, 8107, 7196, 8451, 8000, 8300
1594860824.7944, 56, 0, 8134, 8377, 8171, 4116, 8134, 7095, 8456, 7994, 8298
1594860824.8101, 57, 0, 8102, 8338, 8168, 3957, 8161, 7119, 8453, 7991, 8301
1594860824.8258, 58, 0, 8076, 8300, 8155, 3918, 8225, 7143, 8451, 7992, 8299
1594860824.8414, 59, 0, 8074, 8225, 8109, 3964, 8221, 7214, 8448, 7985, 8299
1594860824.8571, 60, 0, 8077, 8168, 8093, 4012, 8191, 7247, 8451, 7994, 8299
1594860824.8727, 61, 0, 8089, 8080, 8058, 4019, 8148, 7360, 8448, 7988, 8298
1594860824.8886, 62, 0, 8101, 8066, 8043, 4073, 8112, 7427, 8450, 7992, 8298
1594860824.9045, 63, 0, 8118, 8061, 8023, 4105, 8109, 7431, 8453, 7995, 8298
1594860824.9203, 0, 0, 8129, 8057, 8017, 4219, 8057, 7459, 8453, 7990, 8296
1594860824.9362, 1, 0, 8143, 8063, 8024, 4211, 8051, 7388, 8446, 7991, 8296
1594860824.952, 2, 0, 8139, 8055, 8043, 4235, 7996, 7295, 8448, 7986, 8293
1594860824.9679, 3, 0, 8114, 8041, 8078, 4213, 7840, 7374, 8449, 7987, 8294
1594860824.9838, 4, 0, 8102, 8042, 8095, 4222, 7881, 7377, 8450, 7986, 8292
1594860824.9996, 5, 0, 8083, 8045, 8140, 4267, 7842, 7450, 8449, 7984, 8293
1594860825.0155, 6, 0, 8077, 8039, 8161, 4277, 7807, 7530, 8451, 7987, 8292
1594860825.0314, 7, 0, 8103, 8031, 8195, 4315, 7894, 7591, 8455, 7954, 8291
1594860825.0472, 8, 0, 8114, 8032, 8214, 4304, 7918, 7611, 8452, 7982, 8288
1594860825.0631, 9, 0, 8131, 8064, 8304, 4217, 8019, 7658, 8451, 7985, 8291
1594860825.0787, 10, 0, 8187, 8078, 8265, 4088, 8068, 7750, 8454, 7986, 8289
1594860825.0944, 11, 0, 8228, 8088, 8258, 4137, 8066, 7701, 8453, 7984, 8289
1594860825.11, 12, 0, 8303, 8054, 8247, 4146, 8171, 7638, 8454, 7985, 8288
1594860825.1256, 13, 0, 8345, 8018, 8241, 4133, 8199, 7633, 8449, 7987, 8288
1594860825.1414, 14, 0, 8425, 7937, 8228, 3903, 8201, 7662, 8453, 7987, 8285
1594860825.1572, 15, 0, 8484, 7896, 8201, 3904, 8177, 7647, 8455, 7989, 8291
1594860825.173, 16, 0, 8596, 7832, 8134, 3941, 8214, 7585, 8450, 7987, 8289
1594860825.1889, 17, 0, 8622, 7811, 8104, 3972, 8125, 7501, 8456, 7992, 8288
1594860825.2047, 18, 0, 8614, 7788, 8043, 3964, 8042, 7534, 8461, 7991, 8286
1594860825.2204, 19, 0, 8600, 7785, 8001, 4008, 7925, 7532, 8461, 7989, 8285
1594860825.2363, 20, 0, 8565, 7779, 7956, 4089, 7895, 7533, 8461, 7989, 8284
1594860825.2521, 21, 0, 8518, 7778, 7963, 4285, 7764, 7554, 8460, 7997, 8282
1594860825.268, 22, 0, 8405, 7773, 7979, 4223, 7761, 7589, 8459, 7989, 8282
1594860825.2838, 23, 0, 8345, 7788, 7989, 4173, 7760, 7655, 8458, 7989, 8278
1594860825.2997, 24, 0, 8259, 7850, 7999, 4175, 7776, 7808, 8461, 7988, 8280
1594860825.3156, 25, 0, 8236, 7872, 8001, 4240, 7744, 7884, 8461, 7986, 8278
1594860825.3313, 26, 0, 8221, 7882, 8012, 4247, 7715, 7987, 8462, 7989, 8276
1594860825.3472, 27, 0, 8198, 7904, 8028, 4268, 7800, 8009, 8464, 7987, 8272
1594860825.3628, 28, 0, 8195, 7925, 8041, 4246, 7739, 8043, 8465, 7986, 8274
1594860825.3785, 29, 0, 8172, 7966, 8048, 4235, 7747, 8082, 8459, 7984, 8272
1594860825.3942, 30, 0, 8165, 7982, 8049, 4254, 7754, 8090, 8456, 7984, 8268
1594860825.4098, 31, 0, 8156, 7964, 8047, 4237, 7690, 8150, 8460, 7986, 8269
1594860825.4254, 32, 0, 8161, 7950, 8039, 4249, 7684, 8150, 8462, 7983, 8269
1594860825.4411, 33, 0, 8158, 7952, 8037, 4252, 7690, 8132, 8460, 7986, 8265
1594860825.4567, 34, 0, 8154, 7978, 8045, 4320, 7616, 8181, 8458, 7978, 8268
1594860825.4724, 35, 0, 8133, 8030, 8079, 4319, 7628, 8184, 8458, 7981, 8264
1594860825.488, 36, 0, 8120, 8054, 8093, 4297, 7634, 8200, 8463, 7983, 8266
1594860825.5038, 37, 0, 8099, 8093, 8114, 4281, 7613, 8220, 8460, 7979, 8264
1594860825.5194, 38, 0, 8090, 8114, 8126, 4234, 7647, 8206, 8462, 7979, 8266
1594860825.535, 39, 0, 8097, 8152, 8146, 4229, 7677, 8238, 8460, 7982, 8262
1594860825.5509, 40, 0, 8107, 8158, 8152, 4227, 7746, 8230, 8461, 7979, 8263
1594860825.5667, 41, 0, 8117, 8160, 8161, 4157, 7709, 8269, 8461, 7981, 8263
1594860825.5826, 42, 0, 8138, 8159, 8154, 4193, 7721, 8253, 8460, 7982, 8264
1594860825.5985, 43, 0, 8144, 8160, 8160, 4248, 7684, 8197, 8458, 7974, 8262
1594860825.6143, 44, 0, 8144, 8178, 8181, 4249, 7717, 8106, 8458, 7977, 8260
1594860825.6302, 45, 0, 8124, 8186, 8194, 4230, 7641, 8070, 8461, 7978, 8262
1594860825.6461, 46, 0, 8078, 8192, 8209, 4266, 7605, 8090, 8457, 7977, 8262
1594860825.6619, 47, 0, 8055, 8175, 8216, 4191, 7685, 8086, 8464, 7976, 8262
1594860825.6776, 48, 0, 8032, 8147, 8216, 4125, 7737, 8123, 8457, 7976, 8260
1594860825.6932, 49, 0, 8037, 8152, 8212, 4145, 7709, 8162, 8458, 7971, 8259
1594860825.7089, 50, 0, 8049, 8158, 8201, 4183, 7801, 8148, 8461, 7965, 8259
1594860825.7246, 51, 0, 8044, 8154, 8197, 4318, 7772, 8108, 8464, 7977, 8262
1594860825.7403, 52, 0, 8032, 8098, 8221, 4284, 7679, 8130, 8459, 7977, 8260
1594860825.7559, 53, 0, 8024, 8027, 8214, 4199, 7667, 8121, 8464, 7979, 8260
1594860825.7715, 54, 0, 8052, 7960, 8206, 4198, 7651, 8137, 8458, 7976, 8255
1594860825.7872, 55, 0, 8048, 7956, 8212, 4228, 7566, 8184, 8462, 7975, 8255
1594860825.8031, 56, 0, 8042, 7996, 8219, 4245, 7570, 8201, 8462, 7972, 8253
1594860825.8187, 57, 0, 8029, 8030, 8236, 4351, 7557, 8205, 8464, 7993, 8253
1594860825.8344, 58, 0, 8009, 8065, 8255, 4437, 7575, 8268, 8463, 7972, 8252
1594860825.8501, 59, 0, 7953, 8109, 8293, 4416, 7671, 8285, 8463, 7975, 8246
1594860825.8659, 60, 0, 7948, 8105, 8326, 4278, 7760, 8291, 8464, 7972, 8249
1594860825.8818, 61, 0, 7964, 8092, 8377, 4162, 7767, 8335, 8465, 7975, 8250
1594860825.8976, 62, 0, 7988, 8106, 8380, 4073, 7873, 8369, 8468, 7982, 8248
1594860825.9135, 63, 0, 8037, 8161, 8380, 4050, 7968, 8376, 8470, 7974, 8247
1594860825.9292, 0, 0, 8062, 8166, 8358, 4065, 7947, 8335, 8468, 7989, 8248
1594860825.945, 1, 0, 8120, 8166, 8308, 4062, 7936, 8334, 8474, 7975, 8246
1594860825.9607, 2, 0, 8141, 8165, 8287, 4082, 7968, 8289, 8470, 7979, 8248
1594860825.9765, 3, 0, 8164, 8179, 8249, 4099, 7962, 8294, 8468, 7977, 8248
1594860825.9922, 4, 0, 8169, 8188, 8241, 4127, 7882, 8310, 8469, 7975, 8244
1594860826.0079, 5, 0, 8167, 8218, 8226, 4120, 7944, 8231, 8469, 7965, 8246
1594860826.0237, 6, 0, 8174, 8232, 8224, 4147, 7873, 8233, 8466, 7976, 8246
1594860826.0394, 7, 0, 8181, 8257, 8209, 4133, 7909, 8198, 8472, 7981, 8249
1594860826.055, 8, 0, 8181, 8259, 8210, 4224, 7887, 8193, 8468, 7976, 8246
1594860826.0708, 9, 0, 8175, 8262, 8219, 4201, 7903, 8183, 8470, 7976, 8246
1594860826.0865, 10, 0, 8179, 8269, 8217, 4116, 7899, 8228, 8466, 7973, 8249
1594860826.1021, 11, 0, 8198, 8259, 8203, 4140, 7917, 8157, 8467, 7978, 8251
1594860826.1178, 12, 0, 8225, 8239, 8194, 4122, 7934, 8102, 8464, 7980, 8250
1594860826.1336, 13, 0, 8226, 8206, 8187, 4014, 7963, 8080, 8473, 7978, 8250
1594860826.1494, 14, 0, 8233, 8147, 8151, 3951, 7960, 8117, 8473, 7976, 8251
1594860826.1653, 15, 0, 8249, 8131, 8120, 4046, 7982, 8095, 8465, 7980, 8252
1594860826.1811, 16, 0, 8268, 8073, 8069, 4099, 7926, 8097, 8470, 7975, 8248
1594860826.197, 17, 0, 8264, 7996, 8054, 4055, 7860, 8041, 8466, 7963, 8248
1594860826.2129, 18, 0, 8244, 7820, 7962, 3970, 7891, 8027, 8465, 7976, 8246
1594860826.2287, 19, 0, 8238, 7764, 7921, 3988, 7928, 8011, 8473, 7975, 8246
1594860826.2446, 20, 0, 8199, 7709, 7874, 4124, 7841, 8126, 8466, 7970, 8244
1594860826.2604, 21, 0, 8178, 7718, 7868, 4209, 7776, 8215, 8468, 7970, 8242
1594860826.2762, 22, 0, 8167, 7797, 7901, 4349, 7690, 8409, 8465, 7959, 8237
1594860826.2919, 23, 0, 8171, 7856, 7929, 4452, 7601, 8477, 8471, 7967, 8238
1594860826.3077, 24, 0, 8178, 7903, 7961, 4458, 7593, 8559, 8466, 7973, 8236
1594860826.3234, 25, 0, 8215, 7974, 8038, 4441, 7582, 8620, 8466, 7965, 8236
1594860826.3391, 26, 0, 8234, 8004, 8078, 4408, 7554, 8608, 8466, 7967, 8237
1594860826.3547, 27, 0, 8270, 8074, 8145, 4345, 7599, 8535, 8468, 7966, 8233
1594860826.3704, 28, 0, 8285, 8107, 8172, 4333, 7588, 8511, 8467, 7965, 8234
1594860826.3859, 29, 0, 8279, 8162, 8211, 4315, 7624, 8417, 8467, 7967, 8235
1594860826.4016, 30, 0, 8270, 8177, 8224, 4289, 7565, 8406, 8461, 7973, 8236
1594860826.4173, 31, 0, 8252, 8185, 8222, 4274, 7614, 8364, 8469, 7968, 8239
1594860826.4329, 32, 0, 8239, 8186, 8222, 4255, 7577, 8408, 8467, 7972, 8235
1594860826.4487, 33, 0, 8210, 8192, 8225, 4244, 7607, 8428, 8470, 7971, 8238
1594860826.4643, 34, 0, 8201, 8195, 8223, 4202, 7678, 8418, 8466, 7977, 8239
1594860826.4802, 35, 0, 8197, 8209, 8211, 4210, 7700, 8452, 8472, 7970, 8235
1594860826.4961, 36, 0, 8195, 8218, 8206, 4224, 7711, 8460, 8465, 7952, 8237
1594860826.5119, 37, 0, 8191, 8238, 8208, 4230, 7723, 8454, 8464, 7966, 8237
1594860826.5278, 38, 0, 8193, 8250, 8207, 4232, 7669, 8488, 8468, 7966, 8240
1594860826.5437, 39, 0, 8198, 8275, 8205, 4184, 7721, 8443, 8466, 7966, 8238
1594860826.5595, 40, 0, 8214, 8286, 8202, 4172, 7693, 8418, 8463, 7965, 8240
1594860826.5754, 41, 0, 8214, 8302, 8212, 4206, 7703, 8313, 8465, 7967, 8241
1594860826.5911, 42, 0, 8193, 8336, 8225, 4290, 7627, 8319, 8464, 7966, 8240
1594860826.6068, 43, 0, 8181, 8345, 8243, 4276, 7686, 8269, 8461, 7965, 8243
1594860826.6225, 44, 0, 8147, 8267, 8263, 4242, 7656, 8246, 8461, 7966, 8240
1594860826.6381, 45, 0, 8134, 8203, 8256, 4218, 7668, 8234, 8465, 7967, 8239
1594860826.6538, 46, 0, 8137, 8147, 8252, 4157, 7708, 8359, 8463, 7963, 8241
1594860826.6696, 47, 0, 8148, 8155, 8254, 4137, 7784, 8334, 8460, 7966, 8241
1594860826.6852, 48, 0, 8167, 8157, 8259, 4229, 7807, 8308, 8468, 7967, 8242
1594860826.701, 49, 0, 8172, 8139, 8259, 4122, 7818, 8404, 8466, 7968, 8242
1594860826.7167, 50, 0, 8198, 8118, 8234, 4103, 7840, 8395, 8464, 7970, 8239
1594860826.7324, 51, 0, 8218, 8128, 8218, 4107, 7849, 8412, 8465, 7970, 8241
1594860826.7481, 52, 0, 8259, 8144, 8181, 4073, 7831, 8399, 8465, 7972, 8239
1594860826.7637, 53, 0, 8270, 8147, 8157, 4110, 7824, 8355, 8467, 7969, 8240
1594860826.7794, 54, 0, 8277, 8138, 8120, 4156, 7779, 8310, 8463, 7971, 8241
1594860826.7952, 55, 0, 8274, 8127, 8108, 4174, 7717, 8279, 8467, 7971, 8239
1594860826.8111, 56, 0, 8260, 8121, 8097, 4212, 7661, 8235, 8463, 7968, 8240
1594860826.827, 57, 0, 8215, 8118, 8077, 4242, 7678, 8237, 8467, 7968, 8240
1594860826.8428, 58, 0, 8196, 8123, 8085, 4276, 7643, 8327, 8464, 7954, 8241
1594860826.8587, 59, 0, 8170, 8116, 8098, 4293, 7640, 8372, 8460, 7967, 8240
1594860826.8745, 60, 0, 8172, 8114, 8107, 4248, 7599, 8409, 8463, 7968, 8239
1594860826.8904, 61, 0, 8183, 8133, 8123, 4357, 7564, 8399, 8465, 7969, 8240
1594860826.9063, 62, 0, 8178, 8131, 8137, 4450, 7563, 8372, 8464, 7968, 8237
1594860826.922, 63, 0, 8160, 8102, 8185, 4431, 7573, 8315, 8467, 7965, 8240
1594860826.9377, 0, 0, 8132, 8097, 8220, 4389, 7551, 8279, 8466, 7967, 8238
1594860826.9535, 1, 0, 8081, 8122, 8289, 4408, 7463, 8338, 8467, 7964, 8238
1594860826.9693, 2, 0, 8043, 8132, 8322, 4337, 7497, 8327, 8469, 7971, 8237
1594860826.9852, 3, 0, 7972, 8149, 8369, 4333, 7537, 8315, 8471, 7970, 8237
1594860827.0008, 4, 0, 7932, 8172, 8393, 4332, 7568, 8309, 8468, 7968, 8235
1594860827.0166, 5, 0, 7843, 8225, 8423, 4294, 7611, 8289, 8469, 7967, 8234
1594860827.0322, 6, 0, 7796, 8271, 8430, 4192, 7688, 8312, 8468, 7969, 8231
1594860827.0478, 7, 0, 7755, 8318, 8428, 4168, 7665, 8419, 8469, 7967, 8232
1594860827.0635, 8, 0, 7726, 8350, 8391, 4130, 7845, 8423, 8470, 7967, 8234
1594860827.0793, 9, 0, 7739, 8352, 8364, 4166, 7897, 8494, 8466, 7969, 8231
1594860827.0952, 10, 0, 7798, 8317, 8345, 4183, 7932, 8481, 8463, 7970, 8231
1594860827.1111, 11, 0, 7825, 8302, 8344, 4136, 8004, 8525, 8468, 7969, 8232
1594860827.1269, 12, 0, 7902, 8293, 8324, 4093, 8027, 8523, 8472, 7968, 8230
1594860827.1428, 13, 0, 7952, 8291, 8310, 4122, 7965, 8492, 8468, 7967, 8227
1594860827.1586, 14, 0, 8044, 8277, 8292, 4135, 7967, 8387, 8473, 7967, 8231
1594860827.1744, 15, 0, 8077, 8233, 8279, 4120, 8019, 8362, 8472, 7969, 8230
1594860827.1902, 16, 0, 8152, 8150, 8255, 4124, 8021, 8330, 8470, 7970, 8227
1594860827.206, 17, 0, 8180, 8135, 8248, 4165, 7961, 8318, 8469, 7967, 8228
1594860827.2219, 18, 0, 8204, 8120, 8237, 4173, 7927, 8366, 8468, 7956, 8230
1594860827.2377, 19, 0, 8209, 8117, 8237, 4188, 8008, 8313, 8471, 7968, 8230
1594860827.2535, 20, 0, 8215, 8128, 8229, 4204, 7932, 8392, 8471, 7974, 8231
1594860827.2694, 21, 0, 8223, 8145, 8225, 4122, 7951, 8377, 8471, 7968, 8228
1594860827.2852, 22, 0, 8232, 8175, 8217, 4150, 7944, 8372, 8468, 7970, 8227
1594860827.301, 23, 0, 8257, 8181, 8205, 4160, 7946, 8363, 8471, 7968, 8228
1594860827.3168, 24, 0, 8261, 8179, 8202, 4190, 7957, 8311, 8471, 7970, 8232
1594860827.3326, 25, 0, 8268, 8170, 8191, 4147, 7981, 8312, 8472, 7971, 8232
1594860827.3485, 26, 0, 8270, 8173, 8184, 4153, 7998, 8306, 8472, 7971, 8230
1594860827.3643, 27, 0, 8278, 8174, 8173, 4191, 7993, 8299, 8474, 7972, 8230
1594860827.3798, 28, 0, 8281, 8172, 8176, 4232, 7943, 8260, 8471, 7971, 8231
1594860827.3955, 29, 0, 8261, 8179, 8176, 4211, 7939, 8265, 8476, 7973, 8234
1594860827.4113, 30, 0, 8257, 8182, 8182, 4233, 7912, 8263, 8468, 7973, 8233
1594860827.4272, 31, 0, 8237, 8169, 8197, 4267, 7905, 8271, 8470, 7970, 8234
1594860827.4431, 32, 0, 8223, 8145, 8213, 4365, 7814, 8296, 8470, 7990, 8231
1594860827.4589, 33, 0, 8208, 8082, 8256, 4324, 7861, 8326, 8476, 7970, 8232
1594860827.4748, 34, 0, 8210, 8059, 8277, 4297, 7822, 8397, 8475, 7975, 8229
1594860827.4907, 35, 0, 8232, 8051, 8301, 4200, 7908, 8354, 8475, 7971, 8230
1594860827.5065, 36, 0, 8242, 8049, 8308, 4208, 7877, 8356, 8476, 7973, 8232
1594860827.5222, 37, 0, 8235, 8062, 8305, 4173, 7976, 8317, 8474, 7968, 8229
1594860827.5378, 38, 0, 8231, 8092, 8306, 4151, 7960, 8373, 8477, 7979, 8230
1594860827.5535, 39, 0, 8226, 8122, 8298, 4168, 8002, 8351, 8477, 7977, 8229
1594860827.5692, 40, 0, 8222, 8159, 8278, 4201, 7961, 8411, 8474, 7978, 8229
1594860827.5848, 41, 0, 8219, 8152, 8263, 4173, 8046, 8369, 8482, 7978, 8230
1594860827.6005, 42, 0, 8218, 8130, 8251, 4163, 7986, 8343, 8474, 7976, 8230
1594860827.616, 43, 0, 8218, 8131, 8247, 4150, 8027, 8295, 8478, 7978, 8229
1594860827.6317, 44, 0, 8199, 8140, 8236, 4188, 7974, 8337, 8479, 7974, 8229
1594860827.6474, 45, 0, 8184, 8147, 8227, 4206, 8004, 8382, 8479, 7978, 8232
1594860827.663, 46, 0, 8186, 8149, 8226, 4187, 8073, 8339, 8477, 7976, 8232
1594860827.6787, 47, 0, 8193, 8156, 8225, 4232, 8016, 8384, 8476, 7978, 8227
1594860827.6944, 48, 0, 8206, 8129, 8230, 4271, 8029, 8378, 8476, 7977, 8231
1594860827.7102, 49, 0, 8213, 8124, 8239, 4175, 8061, 8361, 8476, 7980, 8228
1594860827.7261, 50, 0, 8228, 8125, 8245, 4184, 8054, 8385, 8472, 7977, 8229
1594860827.7419, 51, 0, 8230, 8136, 8244, 4173, 8069, 8364, 8477, 7980, 8227
1594860827.7578, 52, 0, 8231, 8165, 8224, 4172, 8040, 8365, 8478, 7983, 8226
1594860827.7737, 53, 0, 8230, 8168, 8209, 4161, 8086, 8312, 8481, 7980, 8230
1594860827.7895, 54, 0, 8229, 8161, 8199, 4215, 8024, 8315, 8477, 7982, 8229
1594860827.8054, 55, 0, 8213, 8143, 8180, 4229, 8032, 8320, 8479, 7978, 8228
1594860827.8212, 56, 0, 8206, 8134, 8181, 4223, 7971, 8351, 8477, 7975, 8229
1594860827.8371, 57, 0, 8189, 8129, 8187, 4283, 7949, 8344, 8477, 7979, 8227
1594860827.8528, 58, 0, 8176, 8122, 8201, 4286, 7963, 8336, 8479, 7980, 8227
1594860827.8686, 59, 0, 8151, 8109, 8224, 4242, 8000, 8354, 8477, 7979, 8228
1594860827.8843, 60, 0, 8146, 8109, 8235, 4210, 8032, 8415, 8481, 7982, 8228
1594860827.8998, 61, 0, 8153, 8116, 8236, 4150, 8105, 8490, 8483, 7966, 8230
1594860827.9156, 62, 0, 8164, 8122, 8234, 4152, 8078, 8537, 8479, 7982, 8227
1594860827.9312, 63, 0, 8204, 8152, 8212, 4174, 8113, 8527, 8480, 7981, 8228
1594860827.9468, 0, 0, 8214, 8162, 8208, 4221, 8064, 8475, 8488, 7984, 8227
1594860827.9625, 1, 0, 8238, 8179, 8192, 4258, 8095, 8457, 8481, 7980, 8231
1594860827.9782, 2, 0, 8240, 8185, 8200, 4291, 8086, 8380, 8478, 7982, 8229
1594860827.9938, 3, 0, 8213, 8165, 8219, 4291, 8024, 8405, 8479, 7980, 8227
1594860828.0095, 4, 0, 8214, 8152, 8238, 4269, 8079, 8372, 8478, 7985, 8228
1594860828.0251, 5, 0, 8213, 8149, 8256, 4310, 8009, 8333, 8483, 7982, 8228
1594860828.041, 6, 0, 8193, 8147, 8277, 4302, 8069, 8317, 8480, 7980, 8231
1594860828.0569, 7, 0, 8167, 8140, 8288, 4272, 8043, 8438, 8483, 7984, 8226
1594860828.0727, 8, 0, 8156, 8139, 8294, 4259, 8012, 8502, 8477, 7978, 8227
1594860828.0886, 9, 0, 8162, 8148, 8293, 4138, 8074, 8476, 8478, 7984, 8230
1594860828.1044, 10, 0, 8145, 8165, 8242, 4028, 8122, 8477, 8480, 7982, 8227
1594860828.1203, 11, 0, 8137, 8169, 8203, 3968, 8174, 8565, 8482, 7987, 8228
1594860828.136, 12, 0, 8179, 8212, 8100, 4004, 8156, 8702, 8482, 7984, 8228
1594860828.1517, 13, 0, 8219, 8249, 8056, 4083, 8234, 8702, 8478, 7982, 8227
1594860828.1676, 14, 0, 8305, 8305, 8009, 4207, 8185, 8636, 8481, 7979, 8231
1594860828.1835, 15, 0, 8344, 8316, 8002, 4332, 8170, 8493, 8479, 7983, 8230
1594860828.1992, 16, 0, 8376, 8284, 8063, 4426, 8082, 8160, 8478, 7980, 8234
1594860828.2151, 17, 0, 8344, 8247, 8101, 4280, 7912, 8120, 8475, 7983, 8232
1594860828.2307, 18, 0, 8288, 8198, 8150, 4273, 7891, 8133, 8479, 7980, 8233
1594860828.2464, 19, 0, 8263, 8189, 8176, 4232, 7889, 8165, 8479, 7980, 8232
1594860828.2621, 20, 0, 8199, 8167, 8218, 4190, 7918, 8193, 8478, 7981, 8232
1594860828.2777, 21, 0, 8178, 8159, 8223, 4154, 7990, 8220, 8476, 7982, 8234
1594860828.2934, 22, 0, 8162, 8156, 8223, 4121, 8036, 8226, 8478, 7981, 8234
1594860828.309, 23, 0, 8142, 8143, 8213, 4104, 8055, 8296, 8475, 7977, 8230
1594860828.3249, 24, 0, 8144, 8134, 8201, 4114, 8058, 8407, 8486, 7981, 8232
1594860828.3408, 25, 0, 8163, 8114, 8184, 4123, 8062, 8428, 8483, 7982, 8232
1594860828.3566, 26, 0, 8179, 8107, 8172, 4151, 8087, 8420, 8477, 7977, 8228
1594860828.3725, 27, 0, 8211, 8095, 8162, 4174, 8049, 8431, 8475, 7981, 8232
1594860828.3884, 28, 0, 8222, 8094, 8157, 4190, 8006, 8390, 8478, 7978, 8230
1594860828.4042, 29, 0, 8233, 8108, 8153, 4261, 7980, 8384, 8479, 7982, 8233
1594860828.4201, 30, 0, 8230, 8109, 8162, 4263, 7989, 8367, 8479, 7979, 8228
1594860828.4359, 31, 0, 8215, 8099, 8170, 4231, 7987, 8365, 8479, 7978, 8232
1594860828.4518, 32, 0, 8207, 8092, 8172, 4225, 7939, 8416, 8482, 7977, 8228
1594860828.4675, 33, 0, 8204, 8096, 8175, 4223, 8016, 8383, 8479, 7987, 8228
1594860828.4831, 34, 0, 8207, 8101, 8176, 4239, 7964, 8381, 8482, 7979, 8229
1594860828.4988, 35, 0, 8205, 8094, 8184, 4282, 7994, 8430, 8480, 7995, 8230
1594860828.5144, 36, 0, 8205, 8091, 8185, 4247, 8022, 8464, 8478, 7978, 8230
1594860828.5301, 37, 0, 8210, 8095, 8183, 4228, 8030, 8470, 8474, 7979, 8225
1594860828.5457, 38, 0, 8211, 8098, 8183, 4205, 8028, 8480, 8476, 7981, 8226
1594860828.5614, 39, 0, 8210, 8107, 8172, 4219, 8025, 8472, 8477, 7978, 8223
1594860828.5772, 40, 0, 8212, 8126, 8158, 4227, 8001, 8481, 8477, 7979, 8227
1594860828.5929, 41, 0, 8211, 8134, 8153, 4204, 7953, 8519, 8475, 7983, 8226
1594860828.6085, 42, 0, 8218, 8152, 8142, 4209, 8012, 8486, 8478, 7977, 8225
1594860828.6242, 43, 0, 8224, 8153, 8142, 4249, 7950, 8534, 8479, 7979, 8224
1594860828.64, 44, 0, 8232, 8148, 8140, 4220, 7969, 8561, 8475, 7979, 8227
1594860828.6557, 45, 0, 8242, 8142, 8141, 4274, 7924, 8513, 8476, 7968, 8228
1594860828.6716, 46, 0, 8242, 8143, 8145, 4261, 7999, 8504, 8474, 7977, 8226
1594860828.6874, 47, 0, 8244, 8144, 8146, 4217, 7956, 8464, 8478, 7979, 8227
1594860828.7033, 48, 0, 8243, 8151, 8140, 4241, 7919, 8422, 8477, 7975, 8229
1594860828.7191, 49, 0, 8232, 8152, 8141, 4279, 7902, 8422, 8476, 7970, 8224
1594860828.735, 50, 0, 8207, 8147, 8153, 4277, 7871, 8441, 8474, 7976, 8227
1594860828.7509, 51, 0, 8200, 8146, 8156, 4273, 7897, 8463, 8478, 7978, 8226
1594860828.7665, 52, 0, 8194, 8149, 8163, 4255, 7886, 8489, 8477, 7979, 8227
1594860828.7822, 53, 0, 8192, 8157, 8168, 4239, 7930, 8492, 8473, 7973, 8227
1594860828.7979, 54, 0, 8197, 8164, 8170, 4235, 7932, 8477, 8473, 7978, 8225
1594860828.8135, 55, 0, 8205, 8173, 8174, 4223, 7949, 8426, 8475, 7976, 8230
1594860828.8294, 56, 0, 8208, 8175, 8178, 4208, 7954, 8427, 8477, 7977, 8227
1594860828.845, 57, 0, 8217, 8149, 8184, 4224, 7958, 8431, 8479, 7989, 8226
1594860828.8606, 58, 0, 8220, 8120, 8191, 4239, 7915, 8465, 8478, 7978, 8228
1594860828.8763, 59, 0, 8236, 8084, 8188, 4233, 7939, 8472, 8476, 7974, 8225
1594860828.8919, 60, 0, 8237, 8070, 8193, 4229, 7899, 8507, 8473, 7976, 8226
1594860828.9076, 61, 0, 8233, 8082, 8198, 4215, 7923, 8481, 8472, 7978, 8223
1594860828.9234, 62, 0, 8227, 8090, 8193, 4226, 7884, 8498, 8475, 7976, 8225
1594860828.9393, 63, 0, 8207, 8091, 8195, 4232, 7918, 8492, 8478, 7977, 8225
1594860828.955, 0, 0, 8203, 8091, 8198, 4228, 7913, 8530, 8477, 7973, 8226
1594860828.9708, 1, 0, 8186, 8088, 8195, 4230, 7908, 8583, 8476, 7975, 8224
1594860828.9867, 2, 0, 8183, 8088, 8190, 4213, 7948, 8598, 8478, 7974, 8225
1594860829.0025, 3, 0, 8187, 8105, 8186, 4229, 7969, 8603, 8476, 7974, 8223
1594860829.0184, 4, 0, 8197, 8117, 8176, 4251, 7950, 8620, 8474, 7973, 8222
1594860829.0343, 5, 0, 8193, 8123, 8171, 4250, 7970, 8582, 8476, 7975, 8222
1594860829.0501, 6, 0, 8196, 8155, 8168, 4263, 7910, 8591, 8474, 7974, 8224
1594860829.066, 7, 0, 8193, 8163, 8169, 4289, 7923, 8550, 8475, 7983, 8221
1594860829.0819, 8, 0, 8179, 8151, 8175, 4271, 7866, 8586, 8476, 7977, 8222
1594860829.0977, 9, 0, 8179, 8141, 8176, 4254, 7919, 8564, 8480, 7979, 8223
1594860829.1134, 10, 0, 8179, 8137, 8180, 4264, 7912, 8581, 8477, 7975, 8222
1594860829.129, 11, 0, 8181, 8140, 8180, 4255, 7898, 8620, 8480, 7973, 8223
1594860829.1449, 12, 0, 8185, 8159, 8185, 4267, 7863, 8617, 8476, 7977, 8222
1594860829.1607, 13, 0, 8193, 8171, 8187, 4250, 7921, 8580, 8476, 7973, 8223
1594860829.1765, 14, 0, 8195, 8191, 8189, 4263, 7887, 8589, 8473, 7976, 8220
1594860829.1924, 15, 0, 8192, 8191, 8197, 4252, 7955, 8533, 8477, 7978, 8224
1594860829.2082, 16, 0, 8190, 8176, 8197, 4253, 7898, 8564, 8478, 7976, 8221
1594860829.224, 17, 0, 8183, 8167, 8202, 4238, 7914, 8531, 8474, 7972, 8222
1594860829.2398, 18, 0, 8177, 8165, 8200, 4236, 7936, 8495, 8480, 7976, 8220
1594860829.2556, 19, 0, 8171, 8167, 8198, 4265, 7866, 8444, 8478, 7971, 8220
1594860829.2713, 20, 0, 8152, 8177, 8201, 4274, 7789, 8387, 8477, 7975, 8224
1594860829.2872, 21, 0, 8077, 8192, 8221, 4274, 7782, 8384, 8474, 7980, 8220
1594860829.303, 22, 0, 8048, 8194, 8233, 4320, 7784, 8431, 8476, 7973, 8222
1594860829.3189, 23, 0, 8000, 8188, 8255, 4334, 7782, 8459, 8478, 7977, 8220
1594860829.3347, 24, 0, 7975, 8180, 8274, 4300, 7846, 8508, 8477, 7962, 8219
1594860829.3506, 25, 0, 7953, 8176, 8306, 4292, 7905, 8586, 8480, 7979, 8219
1594860829.3663, 26, 0, 7956, 8184, 8317, 4289, 7903, 8623, 8479, 7972, 8219
1594860829.3819, 27, 0, 7976, 8202, 8334, 4302, 7940, 8628, 8480, 7979, 8220
1594860829.3976, 28, 0, 7988, 8213, 8342, 4314, 7957, 8620, 8476, 7975, 8219
1594860829.4133, 29, 0, 8009, 8224, 8361, 4311, 8018, 8609, 8478, 7974, 8218
1594860829.4289, 30, 0, 8025, 8231, 8373, 4325, 8031, 8635, 8482, 7977, 8216
1594860829.4448, 31, 0, 8074, 8245, 8410, 4291, 7992, 8712, 8479, 7983, 8217
1594860829.4604, 32, 0, 8116, 8257, 8421, 4176, 8145, 8654, 8480, 7982, 8217
1594860829.4761, 33, 0, 8208, 8270, 8430, 4161, 8135, 8642, 8481, 7981, 8218
1594860829.4917, 34, 0, 8240, 8254, 8417, 4100, 8247, 8485, 8478, 7981, 8220
1594860829.5073, 35, 0, 8254, 8223, 8393, 4069, 8304, 8431, 8479, 7983, 8221
1594860829.523, 36, 0, 8259, 8182, 8332, 4034, 8234, 8399, 8482, 7998, 8219
1594860829.5387, 37, 0, 8257, 8178, 8298, 3991, 8263, 8385, 8486, 7985, 8222
1594860829.5546, 38, 0, 8238, 8176, 8219, 4013, 8248, 8393, 8485, 7969, 8221
1594860829.5704, 39, 0, 8239, 8183, 8180, 4120, 8189, 8369, 8484, 7979, 8217
1594860829.586, 40, 0, 8221, 8183, 8133, 4141, 8208, 8341, 8478, 7981, 8220
1594860829.6019, 41, 0, 8212, 8171, 8124, 4209, 8138, 8376, 8481, 7985, 8217
1594860829.6177, 42, 0, 8202, 8135, 8120, 4223, 8124, 8383, 8482, 7982, 8220
1594860829.6336, 43, 0, 8198, 8126, 8121, 4232, 8119, 8402, 8480, 7982, 8221
1594860829.6495, 44, 0, 8205, 8114, 8133, 4268, 8048, 8476, 8482, 7983, 8223
1594860829.6651, 45, 0, 8208, 8111, 8139, 4289, 8051, 8482, 8477, 7986, 8219
1594860829.681, 46, 0, 8211, 8102, 8153, 4259, 8102, 8451, 8485, 7986, 8217
1594860829.6969, 47, 0, 8207, 8094, 8157, 4260, 8116, 8455, 8482, 7983, 8220
1594860829.7125, 48, 0, 8215, 8081, 8161, 4258, 8123, 8493, 8483, 7981, 8219
1594860829.7284, 49, 0, 8223, 8077, 8163, 4259, 8124, 8530, 8476, 7982, 8219
1594860829.744, 50, 0, 8229, 8078, 8164, 4254, 8060, 8562, 8483, 7984, 8217
1594860829.7597, 51, 0, 8242, 8081, 8160, 4275, 8044, 8580, 8479, 7985, 8217
1594860829.7753, 52, 0, 8246, 8088, 8154, 4284, 8108, 8532, 8486, 7984, 8216
1594860829.7909, 53, 0, 8248, 8095, 8162, 4318, 8074, 8485, 8484, 7983, 8218
1594860829.8066, 54, 0, 8242, 8091, 8172, 4333, 8033, 8514, 8484, 7978, 8216
1594860829.8222, 55, 0, 8237, 8075, 8184, 4283, 8045, 8528, 8482, 7979, 8217
1594860829.8379, 56, 0, 8225, 8078, 8194, 4262, 8028, 8540, 8483, 7982, 8219
1594860829.8536, 57, 0, 8213, 8093, 8206, 4275, 7995, 8543, 8487, 7980, 8216
1594860829.8692, 58, 0, 8201, 8102, 8209, 4277, 8030, 8535, 8484, 7982, 8213
1594860829.885, 59, 0, 8184, 8123, 8225, 4283, 8034, 8561, 8481, 7978, 8211
1594860829.9008, 60, 0, 8178, 8123, 8229, 4275, 8042, 8600, 8483, 7972, 8215
1594860829.9166, 61, 0, 8178, 8126, 8233, 4248, 8141, 8590, 8487, 7980, 8217
1594860829.9325, 62, 0, 8188, 8123, 8238, 4220, 8131, 8602, 8479, 7987, 8217
1594860829.9481, 63, 0, 8187, 8126, 8233, 4247, 8105, 8626, 8485, 7984, 8212
1594860829.964, 0, 0, 8193, 8125, 8234, 4290, 8119, 8636, 8486, 7985, 8213
1594860829.9799, 1, 0, 8195, 8139, 8247, 4535, 8140, 8644, 8483, 7982, 8216
1594860829.9957, 2, 0, 8195, 8141, 8297, 4671, 8079, 8663, 8484, 7985, 8213
1594860830.0116, 3, 0, 8193, 8141, 8369, 4547, 7969, 8632, 8485, 7982, 8212
1594860830.0274, 4, 0, 8209, 8173, 8500, 4474, 7973, 8602, 8488, 7982, 8215
1594860830.0431, 5, 0, 8208, 8185, 8551, 4402, 8041, 8589, 8487, 7986, 8212
1594860830.0588, 6, 0, 8195, 8157, 8613, 4269, 8062, 8531, 8487, 7991, 8213
1594860830.0745, 7, 0, 8184, 8145, 8622, 4178, 8200, 8453, 8489, 7994, 8214
1594860830.0903, 8, 0, 8131, 8145, 8591, 4113, 8330, 8466, 8493, 7997, 8214
1594860830.106, 9, 0, 8103, 8127, 8560, 4117, 8349, 8527, 8492, 7994, 8214
1594860830.1215, 10, 0, 8071, 8093, 8479, 4085, 8476, 8573, 8495, 7998, 8214
1594860830.1373, 11, 0, 8065, 8078, 8436, 4067, 8502, 8637, 8490, 7997, 8208
1594860830.1531, 12, 0, 8069, 8064, 8347, 4067, 8537, 8629, 8489, 7994, 8209
1594860830.1689, 13, 0, 8077, 8060, 8301, 4080, 8476, 8693, 8494, 7999, 8211
1594860830.1848, 14, 0, 8097, 8049, 8226, 4089, 8468, 8700, 8493, 8000, 8209
1594860830.2006, 15, 0, 8108, 8050, 8193, 4154, 8482, 8683, 8495, 7998, 8209
1594860830.2165, 16, 0, 8126, 8059, 8146, 4206, 8496, 8706, 8499, 7998, 8206
1594860830.2323, 17, 0, 8135, 8065, 8130, 4271, 8433, 8762, 8497, 7997, 8206
1594860830.2482, 18, 0, 8145, 8063, 8122, 4328, 8395, 8783, 8489, 7995, 8206
1594860830.2641, 19, 0, 8169, 8059, 8124, 4316, 8453, 8740, 8491, 7997, 8205
1594860830.2799, 20, 0, 8178, 8065, 8129, 4340, 8384, 8763, 8492, 7998, 8206
1594860830.2958, 21, 0, 8203, 8083, 8137, 4339, 8431, 8692, 8491, 7996, 8205
1594860830.3115, 22, 0, 8208, 8080, 8139, 4344, 8365, 8669, 8491, 7996, 8204
1594860830.3271, 23, 0, 8194, 8070, 8150, 4302, 8332, 8711, 8492, 8001, 8206
1594860830.3428, 24, 0, 8187, 8065, 8149, 4301, 8412, 8682, 8490, 7997, 8205
1594860830.3586, 25, 0, 8183, 8065, 8150, 4316, 8380, 8719, 8492, 7992, 8200
1594860830.3743, 26, 0, 8181, 8065, 8147, 4322, 8327, 8765, 8496, 7993, 8201
1594860830.39, 27, 0, 8182, 8078, 8139, 4307, 8359, 8776, 8489, 7994, 8203
1594860830.4055, 28, 0, 8185, 8079, 8140, 4326, 8346, 8799, 8493, 7993, 8199
1594860830.4212, 29, 0, 8189, 8088, 8135, 4314, 8388, 8803, 8491, 7994, 8198
1594860830.4369, 30, 0, 8197, 8097, 8132, 4329, 8332, 8868, 8494, 7994, 8202
1594860830.4525, 31, 0, 8208, 8108, 8135, 4356, 8303, 8868, 8492, 7997, 8200
1594860830.4684, 32, 0, 8219, 8118, 8136, 4342, 8361, 8792, 8495, 7994, 8200
1594860830.484, 33, 0, 8226, 8132, 8144, 4333, 8337, 8812, 8496, 7993, 8198
1594860830.4997, 34, 0, 8230, 8128, 8148, 4340, 8321, 8785, 8490, 7999, 8199
1594860830.5156, 35, 0, 8238, 8129, 8153, 4335, 8317, 8792, 8497, 7995, 8200
1594860830.5314, 36, 0, 8241, 8130, 8160, 4329, 8323, 8784, 8493, 7988, 8201
1594860830.5473, 37, 0, 8236, 8135, 8169, 4343, 8264, 8801, 8490, 7995, 8197
1594860830.5631, 38, 0, 8237, 8146, 8168, 4328, 8286, 8777, 8494, 7993, 8201
1594860830.579, 39, 0, 8234, 8157, 8175, 4350, 8263, 8784, 8492, 7989, 8201
1594860830.5949, 40, 0, 8224, 8162, 8182, 4293, 8325, 8750, 8496, 7994, 8199
1594860830.6107, 41, 0, 8221, 8163, 8181, 4299, 8335, 8751, 8495, 7988, 8198
1594860830.6266, 42, 0, 8218, 8165, 8181, 4325, 8292, 8769, 8493, 7992, 8201
1594860830.6422, 43, 0, 8218, 8164, 8182, 4323, 8298, 8765, 8493, 7994, 8198
1594860830.6579, 44, 0, 8210, 8163, 8184, 4332, 8311, 8756, 8491, 7990, 8200
1594860830.6736, 45, 0, 8204, 8167, 8182, 4328, 8310, 8760, 8492, 7992, 8198
1594860830.6892, 46, 0, 8194, 8172, 8182, 4324, 8329, 8730, 8491, 7976, 8203
1594860830.7049, 47, 0, 8187, 8166, 8183, 4322, 8295, 8748, 8496, 7991, 8200
1594860830.7204, 48, 0, 8179, 8151, 8172, 4299, 8355, 8748, 8496, 7992, 8199
1594860830.7361, 49, 0, 8174, 8150, 8172, 4313, 8307, 8800, 8490, 7989, 8199
1594860830.7518, 50, 0, 8181, 8156, 8175, 4332, 8313, 8797, 8491, 7991, 8199
1594860830.7674, 51, 0, 8193, 8165, 8180, 4333, 8328, 8783, 8492, 7987, 8195
1594860830.7831, 52, 0, 8197, 8164, 8185, 4329, 8256, 8793, 8490, 7993, 8200
1594860830.7988, 53, 0, 8199, 8157, 8185, 4320, 8326, 8747, 8496, 7993, 8199
1594860830.8144, 54, 0, 8197, 8158, 8191, 4312, 8253, 8765, 8500, 7994, 8196
1594860830.8303, 55, 0, 8186, 8150, 8188, 4279, 8261, 8757, 8496, 7990, 8199
1594860830.8461, 56, 0, 8185, 8146, 8186, 4284, 8308, 8749, 8491, 7992, 8199
1594860830.862, 57, 0, 8180, 8148, 8181, 4299, 8326, 8736, 8493, 7992, 8198
1594860830.8779, 58, 0, 8178, 8150, 8182, 4331, 8263, 8790, 8493, 7974, 8197
1594860830.8937, 59, 0, 8172, 8153, 8191, 4338, 8249, 8813, 8493, 7991, 8199
1594860830.9096, 60, 0, 8171, 8158, 8191, 4316, 8289, 8802, 8496, 7989, 8199
1594860830.9254, 61, 0, 8179, 8160, 8191, 4334, 8291, 8786, 8492, 7991, 8197
1594860830.9413, 62, 0, 8178, 8162, 8192, 4330, 8317, 8774, 8491, 7988, 8201
1594860830.957, 63, 0, 8175, 8168, 8197, 4329, 8282, 8792, 8495, 7990, 8199
1594860830.9726, 0, 0, 8172, 8166, 8195, 4296, 8312, 8789, 8487, 7989, 8197
1594860830.9883, 1, 0, 8173, 8173, 8199, 4296, 8296, 8793, 8489, 8006, 8196
1594860831.004, 2, 0, 8178, 8179, 8197, 4297, 8353, 8750, 8495, 7997, 8199
1594860831.0196, 3, 0, 8178, 8182, 8194, 4314, 8292, 8781, 8497, 7993, 8200
1594860831.0353, 4, 0, 8172, 8181, 8191, 4326, 8279, 8790, 8494, 7989, 8198
1594860831.0508, 5, 0, 8175, 8185, 8186, 4316, 8281, 8779, 8494, 7988, 8201
1594860831.0666, 6, 0, 8180, 8186, 8185, 4318, 8292, 8800, 8489, 7992, 8200
1594860831.0822, 7, 0, 8182, 8181, 8185, 4298, 8337, 8788, 8487, 7990, 8200
1594860831.098, 8, 0, 8196, 8181, 8181, 4290, 8351, 8779, 8491, 7992, 8197
1594860831.1138, 9, 0, 8200, 8180, 8185, 4314, 8288, 8785, 8497, 7993, 8199
1594860831.1296, 10, 0, 8202, 8186, 8181, 4306, 8336, 8773, 8494, 7990, 8197
1594860831.1454, 11, 0, 8199, 8188, 8176, 4297, 8266, 8773, 8492, 7997, 8201
1594860831.1613, 12, 0, 8198, 8205, 8175, 4303, 8247, 8761, 8497, 7990, 8198
1594860831.1771, 13, 0, 8195, 8213, 8172, 4285, 8310, 8733, 8489, 8003, 8205
1594860831.1929, 14, 0, 8184, 8214, 8166, 4312, 8239, 8738, 8488, 7990, 8200
1594860831.2088, 15, 0, 8178, 8218, 8165, 4298, 8309, 8722, 8490, 7993, 8201
1594860831.2246, 16, 0, 8181, 8215, 8163, 4309, 8249, 8771, 8492, 7990, 8198
1594860831.2405, 17, 0, 8178, 8216, 8166, 4285, 8334, 8751, 8492, 7990, 8201
1594860831.2563, 18, 0, 8183, 8219, 8164, 4318, 8250, 8798, 8489, 7989, 8204
1594860831.272, 19, 0, 8194, 8236, 8160, 4293, 8276, 8785, 8487, 7991, 8200
1594860831.2877, 20, 0, 8197, 8244, 8160, 4284, 8266, 8776, 8489, 7988, 8201
1594860831.3033, 21, 0, 8199, 8268, 8156, 4297, 8321, 8723, 8490, 7992, 8202
1594860831.3191, 22, 0, 8199, 8275, 8153, 4303, 8295, 8726, 8495, 7990, 8203
1594860831.3348, 23, 0, 8191, 8302, 8143, 4315, 8240, 8775, 8490, 7999, 8204
1594860831.3504, 24, 0, 8188, 8319, 8140, 4301, 8248, 8788, 8495, 7989, 8205
1594860831.3661, 25, 0, 8178, 8366, 8132, 4265, 8276, 8747, 8492, 7989, 8204
1594860831.3817, 26, 0, 8176, 8393, 8119, 4270, 8273, 8707, 8487, 7984, 8207
1594860831.3974, 27, 0, 8184, 8455, 8109, 4317, 8232, 8725, 8485, 7989, 8209
1594860831.4133, 28, 0, 8184, 8470, 8104, 4265, 8293, 8671, 8490, 7986, 8209
1594860831.4291, 29, 0, 8190, 8480, 8100, 4268, 8270, 8668, 8487, 7984, 8212
1594860831.4448, 30, 0, 8198, 8485, 8095, 4257, 8255, 8664, 8486, 7987, 8213
1594860831.4606, 31, 0, 8202, 8502, 8077, 4266, 8227, 8689, 8488, 7984, 8216
1594860831.4765, 32, 0, 8208, 8514, 8065, 4256, 8246, 8644, 8485, 7987, 8218
1594860831.4924, 33, 0, 8212, 8536, 8058, 4206, 8183, 8514, 8484, 7984, 8220
1594860831.508, 34, 0, 8226, 8591, 8045, 4191, 8236, 8426, 8483, 7981, 8221
1594860831.5239, 35, 0, 8216, 8613, 8032, 4192, 8186, 8432, 8485, 7992, 8226
1594860831.5397, 36, 0, 8203, 8626, 8017, 4222, 8175, 8406, 8482, 7981, 8225
1594860831.5556, 37, 0, 8197, 8623, 8019, 4231, 8209, 8397, 8481, 7979, 8229
1594860831.5713, 38, 0, 8187, 8661, 8018, 4234, 8111, 8472, 8478, 7975, 8233
1594860831.5869, 39, 0, 8189, 8694, 8009, 4211, 8169, 8481, 8471, 7980, 8236
1594860831.6026, 40, 0, 8202, 8819, 7987, 4214, 8186, 8487, 8475, 7977, 8235
1594860831.6183, 41, 0, 8211, 8893, 7970, 4253, 8136, 8482, 8468, 7976, 8241
1594860831.634, 42, 0, 8250, 9020, 7930, 4295, 8071, 8467, 8468, 7975, 8248
1594860831.6497, 43, 0, 8275, 9062, 7912, 4347, 8082, 8383, 8462, 7974, 8251
1594860831.6653, 44, 0, 8294, 9149, 7889, 4410, 8073, 8317, 8460, 7974, 8257
1594860831.681, 45, 0, 8294, 9195, 7883, 4525, 8093, 8191, 8459, 7973, 8259
1594860831.6967, 46, 0, 8270, 9295, 7872, 4530, 7969, 8078, 8456, 7973, 8266
1594860831.7125, 47, 0, 8281, 9364, 7855, 4479, 7856, 7698, 8390, 7974, 8270
1594860831.7282, 48, 0, 8302, 9432, 7852, 4272, 7863, 7626, 8447, 7969, 8278
1594860831.7438, 49, 0, 8282, 9490, 7885, 4573, 7898, 7376, 8443, 7966, 8288
1594860831.7597, 50, 0, 8246, 9486, 7920, 4582, 7799, 7365, 8441, 7968, 8290
1594860831.7756, 51, 0, 8215, 9348, 7985, 4457, 7719, 7380, 8437, 7968, 8295
1594860831.7912, 52, 0, 8217, 9336, 7984, 4406, 7751, 7392, 8429, 7964, 8297
1594860831.8071, 53, 0, 8219, 9489, 7970, 4447, 7756, 7386, 8423, 7965, 8306
1594860831.8229, 54, 0, 8223, 9609, 7964, 4538, 7785, 7369, 8415, 7966, 8313
1594860831.8388, 55, 0, 8265, 9861, 7938, 4645, 7851, 7257, 8416, 7967, 8321
1594860831.8547, 56, 0, 8286, 10005, 7936, 4743, 7798, 7183, 8406, 7966, 8327
1594860831.8703, 57, 0, 8269, 10287, 7926, 4973, 7764, 6956, 8392, 7959, 8334
1594860831.8862, 58, 0, 8254, 10421, 7916, 5052, 7725, 6901, 8378, 7966, 8343
1594860831.9019, 59, 0, 8253, 10664, 7907, 5390, 7777, 6711, 8374, 7962, 8345
1594860831.9175, 60, 0, 8259, 10790, 7925, 5467, 7782, 6569, 8357, 7961, 8360
1594860831.9332, 61, 0, 8281, 11086, 7929, 5574, 7718, 6393, 8337, 7957, 8365
1594860831.9488, 62, 0, 8298, 11151, 7942, 5704, 7652, 5823, 8330, 7961, 8368
1594860831.9645, 63, 0, 8293, 11186, 7961, 5596, 7643, 5563, 8308, 7958, 8376
1594860831.9802, 0, 0, 8308, 11134, 7947, 5379, 7591, 4887, 8302, 7961, 8383
1594860831.9958, 1, 0, 8315, 11023, 7922, 5282, 7546, 4528, 8283, 7965, 8384
1594860832.0115, 2, 0, 8331, 10658, 7880, 5209, 7546, 3799, 8265, 7963, 8390
1594860832.0271, 3, 0, 8325, 10432, 7885, 5253, 7536, 3206, 8262, 7963, 8389
1594860832.043, 4, 0, 8287, 9863, 7893, 5296, 7543, 2960, 8248, 7963, 8392
1594860832.0587, 5, 0, 8262, 9571, 7907, 5375, 7401, 2999, 8239, 7965, 8390
1594860832.0745, 6, 0, 8271, 9029, 7904, 5464, 7416, 2966, 8239, 7964, 8390
1594860832.0904, 7, 0, 8280, 8826, 7913, 5663, 7420, 3223, 8233, 7965, 8392
1594860832.1061, 8, 0, 8325, 8563, 7948, 5764, 7352, 3425, 8234, 7967, 8392
1594860832.1219, 9, 0, 8353, 8470, 7970, 5968, 7500, 3559, 8228, 7977, 8394
1594860832.1378, 10, 0, 8372, 8299, 8035, 6032, 7437, 3832, 8225, 7967, 8393
1594860832.1535, 11, 0, 8368, 8236, 8068, 5935, 7508, 3929, 8231, 7968, 8393
1594860832.1694, 12, 0, 8377, 8193, 8102, 5840, 7460, 4117, 8224, 7971, 8393
1594860832.1852, 13, 0, 8385, 8201, 8099, 5823, 7536, 4204, 8229, 7972, 8398
1594860832.201, 14, 0, 8388, 8224, 8099, 5839, 7551, 4258, 8222, 7978, 8397
1594860832.2167, 15, 0, 8369, 8227, 8099, 5881, 7539, 4257, 8222, 7970, 8397
1594860832.2323, 16, 0, 8347, 8214, 8096, 5867, 7583, 4279, 8224, 7996, 8399
1594860832.2481, 17, 0, 8298, 8181, 8074, 5789, 7584, 4364, 8225, 7971, 8396
1594860832.264, 18, 0, 8280, 8189, 8056, 5794, 7562, 4401, 8219, 7973, 8399
1594860832.2798, 19, 0, 8289, 8236, 8024, 5956, 7566, 4460, 8220, 7973, 8399
1594860832.2955, 20, 0, 8292, 8241, 8019, 6030, 7547, 4515, 8222, 7975, 8400
1594860832.3112, 21, 0, 8302, 8209, 8039, 6063, 7584, 4537, 8221, 7976, 8399
1594860832.3268, 22, 0, 8304, 8183, 8049, 6038, 7603, 4549, 8223, 7972, 8401
1594860832.3425, 23, 0, 8323, 8128, 8066, 6059, 7529, 4570, 8217, 7979, 8400
1594860832.3583, 24, 0, 8332, 8125, 8076, 6070, 7578, 4501, 8219, 7982, 8402
1594860832.3742, 25, 0, 8334, 8143, 8101, 6084, 7532, 4523, 8223, 7979, 8400
1594860832.3901, 26, 0, 8325, 8154, 8117, 6111, 7581, 4457, 8221, 7970, 8399
1594860832.4059, 27, 0, 8270, 8142, 8149, 6110, 7503, 4429, 8224, 7980, 8403
1594860832.4218, 28, 0, 8236, 8139, 8165, 6000, 7511, 4415, 8216, 7990, 8401
1594860832.4376, 29, 0, 8200, 8162, 8165, 5959, 7550, 4410, 8220, 7982, 8402
1594860832.4535, 30, 0, 8185, 8181, 8165, 5971, 7590, 4380, 8222, 7980, 8403
1594860832.4694, 31, 0, 8170, 8190, 8167, 6002, 7569, 4343, 8214, 7979, 8399
1594860832.4852, 32, 0, 8135, 8196, 8186, 5992, 7577, 4350, 8215, 7977, 8400
1594860832.5011, 33, 0, 8120, 8192, 8199, 5842, 7540, 4380, 8219, 7976, 8400
1594860832.517, 34, 0, 8121, 8198, 8197, 5767, 7546, 4385, 8220, 7980, 8400
1594860832.5326, 35, 0, 8137, 8204, 8190, 5818, 7583, 4359, 8221, 7979, 8401
1594860832.5483, 36, 0, 8150, 8187, 8196, 5777, 7591, 4337, 8215, 7976, 8401
1594860832.5639, 37, 0, 8158, 8169, 8186, 5745, 7646, 4314, 8217, 7979, 8398
1594860832.5796, 38, 0, 8190, 8156, 8158, 5822, 7694, 4257, 8214, 7974, 8401
1594860832.5953, 39, 0, 8198, 8139, 8144, 5849, 7795, 4290, 8218, 7978, 8402
1594860832.6109, 40, 0, 8233, 8095, 8094, 5759, 7780, 4248, 8218, 7978, 8403
1594860832.6266, 41, 0, 8252, 8095, 8062, 5838, 7814, 4215, 8214, 7980, 8402
1594860832.6424, 42, 0, 8289, 8113, 8033, 5858, 7787, 4284, 8214, 7980, 8400
1594860832.6583, 43, 0, 8308, 8104, 8017, 5886, 7734, 4359, 8218, 7981, 8402
1594860832.6742, 44, 0, 8345, 8047, 7998, 5854, 7704, 4386, 8217, 7980, 8403
1594860832.69, 45, 0, 8366, 8034, 7981, 5846, 7622, 4467, 8220, 7983, 8403
1594860832.7059, 46, 0, 8375, 8030, 7965, 5983, 7573, 4502, 8214, 7982, 8403
1594860832.7218, 47, 0, 8381, 8021, 7960, 6010, 7604, 4487, 8217, 7986, 8403
1594860832.7376, 48, 0, 8371, 8017, 7964, 6000, 7539, 4509, 8220, 7986, 8405
1594860832.7535, 49, 0, 8357, 8048, 7983, 6003, 7520, 4514, 8215, 7984, 8404
1594860832.7693, 50, 0, 8342, 8084, 7993, 6039, 7556, 4524, 8216, 7970, 8406
1594860832.7852, 51, 0, 8307, 8124, 8020, 6038, 7506, 4542, 8215, 7986, 8408
1594860832.8011, 52, 0, 8291, 8132, 8024, 5980, 7509, 4503, 8217, 7989, 8404
1594860832.8167, 53, 0, 8259, 8162, 8040, 5937, 7437, 4563, 8222, 7993, 8407
1594860832.8324, 54, 0, 8248, 8175, 8050, 5901, 7497, 4539, 8219, 7989, 8407
1594860832.848, 55, 0, 8259, 8165, 8067, 5912, 7469, 4544, 8215, 7992, 8407
1594860832.8637, 56, 0, 8271, 8138, 8075, 5927, 7486, 4523, 8215, 7988, 8407
1594860832.8793, 57, 0, 8284, 8091, 8107, 5872, 7505, 4412, 8215, 7990, 8409
1594860832.895, 58, 0, 8289, 8077, 8123, 5851, 7515, 4417, 8218, 7991, 8409
1594860832.9107, 59, 0, 8295, 8097, 8151, 5850, 7511, 4381, 8220, 7992, 8407
1594860832.9263, 60, 0, 8288, 8117, 8162, 5839, 7536, 4321, 8216, 7994, 8410
1594860832.942, 61, 0, 8281, 8130, 8170, 5847, 7493, 4321, 8214, 7992, 8409
1594860832.9577, 62, 0, 8239, 8141, 8167, 5814, 7519, 4268, 8216, 7991, 8407
1594860832.9735, 63, 0, 8207, 8152, 8166, 5840, 7494, 4308, 8217, 7993, 8408
1594860832.9894, 0, 0, 8173, 8185, 8161, 5901, 7522, 4350, 8215, 7973, 8409
1594860833.0051, 1, 0, 8157, 8192, 8167, 5956, 7492, 4390, 8220, 7993, 8409
1594860833.0209, 2, 0, 8139, 8193, 8191, 5960, 7494, 4403, 8213, 7993, 8410
1594860833.0368, 3, 0, 8142, 8190, 8206, 5965, 7464, 4456, 8217, 7992, 8408
1594860833.0526, 4, 0, 8138, 8204, 8237, 5972, 7461, 4450, 8217, 7992, 8410
1594860833.0683, 5, 0, 8148, 8214, 8245, 5971, 7470, 4464, 8216, 7989, 8410
1594860833.0842, 6, 0, 8159, 8229, 8267, 5955, 7504, 4458, 8210, 7993, 8410
1594860833.1, 7, 0, 8162, 8226, 8276, 5916, 7539, 4437, 8214, 7993, 8411
